#XPS-spectrum

#Date/time: 	2018-12-14__20-18-42


#AK pressure: 	2,07E-8 	mbar
#Pass energy: 	15.0 	eV
#Volt. bias: 	-15.0 	V
#Volt. lens: 	-15.0 	V
#Counttime: 	200.0 	ms
#Vor: 	16.0 	V
#Nach: 	5.0 	V
#slope: 	0.613 	V/s
#offset: 	-48.850 	V


#Slope: 	0.0 	mV/s
#Counttime: 	200.0 	ms




#E_k 	 cps 	 Analyser 	 V_hemi 	 V_hemo 	 E_Pass 	 t_meas


1437.67	001273	-1379.72	-1390.52	072.96
1437.67	001350	-1379.72	-1390.52	072.96
1437.65	001305	-1379.70	-1390.50	072.96
1437.63	001373	-1379.67	-1390.47	072.96
1437.62	001273	-1379.66	-1390.46	072.96
1437.58	001382	-1379.62	-1390.42	072.96
1437.58	001355	-1379.62	-1390.42	072.96
1437.54	001227	-1379.59	-1390.39	072.96
1437.53	001400	-1379.57	-1390.37	072.96
1437.53	001318	-1379.57	-1390.37	072.96
1437.48	001377	-1379.53	-1390.33	072.96
1437.47	001341	-1379.52	-1390.32	072.96
1437.44	001323	-1379.48	-1390.28	072.96
1437.43	001200	-1379.48	-1390.28	072.96
1437.43	001241	-1379.48	-1390.28	072.96
1437.39	001327	-1379.43	-1390.23	072.96
1437.38	001341	-1379.43	-1390.23	072.96
1437.38	001332	-1379.43	-1390.23	072.96
1437.38	001182	-1379.43	-1390.23	072.96
1437.36	001295	-1379.41	-1390.21	072.96
1437.34	001255	-1379.38	-1390.18	072.96
1437.32	001295	-1379.37	-1390.17	072.96
1437.29	001341	-1379.34	-1390.14	072.96
1437.28	001173	-1379.33	-1390.13	072.96
1437.24	001345	-1379.28	-1390.08	072.96
1437.24	001300	-1379.28	-1390.08	072.96
1437.20	001191	-1379.24	-1390.04	072.96
1437.19	-000003	-1379.24	-1390.04	072.96
1437.19	001295	-1379.24	-1390.04	072.96
1437.16	001300	-1379.20	-1390.00	072.96
1437.14	001214	-1379.19	-1389.99	072.96
1437.14	001282	-1379.18	-1389.98	072.96
1437.11	001227	-1379.15	-1389.95	072.96
1437.10	001314	-1379.14	-1389.94	072.96
1437.09	001295	-1379.14	-1389.94	072.96
1437.06	001168	-1379.11	-1389.91	072.96
1437.05	001282	-1379.09	-1389.89	072.96
1437.02	001368	-1379.06	-1389.86	072.96
1437.00	001255	-1379.04	-1389.84	072.96
1436.96	001345	-1379.00	-1389.80	072.96
1436.95	001268	-1378.99	-1389.79	072.96
1436.95	001145	-1378.99	-1389.79	072.96
1436.93	001295	-1378.98	-1389.78	072.96
1436.90	001291	-1378.95	-1389.75	072.96
1436.90	001323	-1378.95	-1389.75	072.96
1436.90	001218	-1378.95	-1389.75	072.96
1436.90	001191	-1378.95	-1389.75	072.96
1436.88	001295	-1378.92	-1389.72	072.96
1436.85	001264	-1378.89	-1389.69	072.96
1436.81	001264	-1378.86	-1389.66	072.96
1436.81	001282	-1378.85	-1389.65	072.96
1436.77	001268	-1378.81	-1389.61	072.96
1436.75	001205	-1378.79	-1389.59	072.96
1436.71	001355	-1378.76	-1389.56	072.96
1436.71	001245	-1378.75	-1389.55	072.96
1436.70	001264	-1378.75	-1389.55	072.96
1436.67	001268	-1378.71	-1389.51	072.96
1436.66	001245	-1378.70	-1389.50	072.96
1436.65	001345	-1378.70	-1389.50	072.96
1436.61	001277	-1378.66	-1389.46	072.96
1436.61	001409	-1378.66	-1389.46	072.96
1436.58	001223	-1378.63	-1389.43	072.96
1436.56	001350	-1378.61	-1389.41	072.96
1436.56	001200	-1378.61	-1389.41	072.96
1436.56	001255	-1378.60	-1389.40	072.96
1436.52	001136	-1378.56	-1389.36	072.96
1436.49	001236	-1378.53	-1389.33	072.96
1436.47	001245	-1378.51	-1389.31	072.96
1436.46	001200	-1378.51	-1389.31	072.96
1436.44	001309	-1378.49	-1389.29	072.96
1436.42	001327	-1378.47	-1389.27	072.96
1436.42	001259	-1378.46	-1389.26	072.96
1436.42	001377	-1378.46	-1389.26	072.96
1436.42	001168	-1378.46	-1389.26	072.96
1436.38	001245	-1378.42	-1389.22	072.96
1436.37	001323	-1378.41	-1389.21	072.96
1436.34	001445	-1378.39	-1389.19	072.96
1436.32	001400	-1378.37	-1389.17	072.96
1436.31	001268	-1378.36	-1389.16	072.96
1436.28	001191	-1378.32	-1389.12	072.96
1436.25	001332	-1378.30	-1389.10	072.96
1436.23	001318	-1378.27	-1389.07	072.96
1436.21	001159	-1378.26	-1389.06	072.96
1436.18	001255	-1378.22	-1389.02	072.96
1436.18	001268	-1378.22	-1389.02	072.96
1436.18	001336	-1378.22	-1389.02	072.96
1436.16	001268	-1378.20	-1389.00	072.96
1436.13	001523	-1378.17	-1388.97	072.96
1436.13	001305	-1378.17	-1388.97	072.96
1436.11	001241	-1378.16	-1388.96	072.96
1436.08	001377	-1378.13	-1388.93	072.96
1436.07	001295	-1378.12	-1388.92	072.96
1436.05	001282	-1378.09	-1388.89	072.96
1436.03	001068	-1378.08	-1388.88	072.96
1436.01	001282	-1378.05	-1388.85	072.96
1435.98	001227	-1378.03	-1388.83	072.96
1435.98	001359	-1378.03	-1388.83	072.96
1435.98	001295	-1378.03	-1388.83	072.96
1435.96	001209	-1378.00	-1388.80	072.96
1435.94	001309	-1377.98	-1388.78	072.96
1435.94	001409	-1377.98	-1388.78	072.96
1435.94	001286	-1377.98	-1388.78	072.96
1435.93	001295	-1377.98	-1388.78	072.96
1435.90	001218	-1377.94	-1388.74	072.96
1435.89	001350	-1377.93	-1388.73	072.96
1435.85	001173	-1377.89	-1388.69	072.96
1435.84	001373	-1377.88	-1388.68	072.96
1435.80	001359	-1377.85	-1388.65	072.96
1435.77	001464	-1377.81	-1388.61	072.96
1435.74	001286	-1377.79	-1388.59	072.96
1435.74	001295	-1377.78	-1388.58	072.96
1435.72	001300	-1377.76	-1388.56	072.96
1435.70	001418	-1377.75	-1388.55	072.96
1435.69	001268	-1377.74	-1388.54	072.96
1435.67	001477	-1377.72	-1388.52	072.96
1435.65	001377	-1377.69	-1388.49	072.96
1435.65	001177	-1377.69	-1388.49	072.96
1435.63	001255	-1377.68	-1388.48	072.96
1435.60	001373	-1377.64	-1388.44	072.96
1435.60	001273	-1377.64	-1388.44	072.96
1435.57	001382	-1377.62	-1388.42	072.96
1435.55	001309	-1377.59	-1388.39	072.96
1435.51	001459	-1377.56	-1388.36	072.96
1435.50	001300	-1377.54	-1388.34	072.96
1435.49	001241	-1377.53	-1388.33	072.96
1435.46	001214	-1377.50	-1388.30	072.96
1435.45	001355	-1377.50	-1388.30	072.96
1435.45	001414	-1377.50	-1388.30	072.96
1435.44	001395	-1377.48	-1388.28	072.96
1435.42	001418	-1377.46	-1388.26	072.96
1435.41	001436	-1377.45	-1388.25	072.96
1435.40	001268	-1377.45	-1388.25	072.96
1435.36	001255	-1377.40	-1388.20	072.96
1435.36	001468	-1377.40	-1388.20	072.96
1435.32	001273	-1377.37	-1388.17	072.96
1435.30	001314	-1377.35	-1388.15	072.96
1435.26	001214	-1377.31	-1388.11	072.96
1435.25	001227	-1377.29	-1388.09	072.96
1435.23	001314	-1377.27	-1388.07	072.96
1435.21	001327	-1377.26	-1388.06	072.96
1435.21	001250	-1377.26	-1388.06	072.96
1435.21	001341	-1377.25	-1388.05	072.96
1435.17	001395	-1377.21	-1388.01	072.96
1435.16	001523	-1377.21	-1388.01	072.96
1435.15	001227	-1377.19	-1387.99	072.96
1435.11	001345	-1377.16	-1387.96	072.96
1435.11	001332	-1377.15	-1387.95	072.96
1435.07	001409	-1377.12	-1387.92	072.96
1435.07	001373	-1377.11	-1387.91	072.96
1435.06	001405	-1377.11	-1387.91	072.96
1435.03	001327	-1377.08	-1387.88	072.96
1435.02	001300	-1377.06	-1387.86	072.96
1435.02	001468	-1377.06	-1387.86	072.96
1434.97	001223	-1377.02	-1387.82	072.96
1434.97	001295	-1377.01	-1387.81	072.96
1434.95	001395	-1377.00	-1387.80	072.96
1434.94	001395	-1376.99	-1387.79	072.96
1434.94	001468	-1376.98	-1387.78	072.96
1434.92	001286	-1376.96	-1387.76	072.96
1434.92	001318	-1376.96	-1387.76	072.96
1434.88	001264	-1376.93	-1387.73	072.96
1434.87	001386	-1376.91	-1387.71	072.96
1434.84	001205	-1376.88	-1387.68	072.96
1434.82	001259	-1376.87	-1387.67	072.96
1434.78	001336	-1376.83	-1387.63	072.96
1434.76	001314	-1376.81	-1387.61	072.96
1434.74	001414	-1376.78	-1387.58	072.96
1434.73	001336	-1376.77	-1387.57	072.96
1434.73	001455	-1376.77	-1387.57	072.96
1434.71	001359	-1376.75	-1387.55	072.96
1434.68	001432	-1376.72	-1387.52	072.96
1434.68	001368	-1376.72	-1387.52	072.96
1434.65	001336	-1376.69	-1387.49	072.96
1434.63	001518	-1376.68	-1387.48	072.96
1434.63	001323	-1376.67	-1387.47	072.96
1434.59	001427	-1376.63	-1387.43	072.96
1434.58	001309	-1376.63	-1387.43	072.96
1434.56	001432	-1376.60	-1387.40	072.96
1434.53	001314	-1376.58	-1387.38	072.96
1434.53	001377	-1376.57	-1387.37	072.96
1434.49	001286	-1376.53	-1387.33	072.96
1434.49	001427	-1376.53	-1387.33	072.96
1434.48	001182	-1376.53	-1387.33	072.96
1434.45	001314	-1376.49	-1387.29	072.96
1434.44	001300	-1376.48	-1387.28	072.96
1434.44	001350	-1376.48	-1387.28	072.96
1434.44	001295	-1376.48	-1387.28	072.96
1434.41	001464	-1376.45	-1387.25	072.96
1434.39	001545	-1376.43	-1387.23	072.96
1434.38	001427	-1376.42	-1387.22	072.96
1434.34	001318	-1376.39	-1387.19	072.96
1434.32	001432	-1376.37	-1387.17	072.96
1434.29	001345	-1376.34	-1387.14	072.96
1434.27	001327	-1376.31	-1387.11	072.96
1434.24	001518	-1376.29	-1387.09	072.96
1434.24	001341	-1376.29	-1387.09	072.96
1434.24	001450	-1376.28	-1387.08	072.96
1434.20	001427	-1376.25	-1387.05	072.96
1434.20	001418	-1376.24	-1387.04	072.96
1434.20	001459	-1376.24	-1387.04	072.96
1434.18	001350	-1376.23	-1387.03	072.96
1434.15	001477	-1376.19	-1386.99	072.96
1434.14	001418	-1376.19	-1386.99	072.96
1434.11	001259	-1376.15	-1386.95	072.96
1434.10	001382	-1376.14	-1386.94	072.96
1434.09	001468	-1376.14	-1386.94	072.96
1434.05	001564	-1376.10	-1386.90	072.96
1434.05	001436	-1376.10	-1386.90	072.96
1434.03	001445	-1376.08	-1386.88	072.96
1434.01	001418	-1376.05	-1386.85	072.96
1434.00	001341	-1376.04	-1386.84	072.96
1433.97	001495	-1376.01	-1386.81	072.96
1433.96	001314	-1376.00	-1386.80	072.96
1433.96	001423	-1376.00	-1386.80	072.96
1433.95	001423	-1376.00	-1386.80	072.96
1433.95	001464	-1375.99	-1386.79	072.96
1433.91	001345	-1375.95	-1386.75	072.96
1433.89	001277	-1375.93	-1386.73	072.96
1433.86	001532	-1375.90	-1386.70	072.96
1433.83	001255	-1375.87	-1386.67	072.96
1433.76	001364	-1375.81	-1386.61	072.96
1433.71	001291	-1375.76	-1386.56	072.96
1433.71	001436	-1375.76	-1386.56	072.96
1433.71	001350	-1375.76	-1386.56	072.96
1433.71	001418	-1375.76	-1386.56	072.96
1433.71	001391	-1375.75	-1386.55	072.96
1433.67	001486	-1375.71	-1386.51	072.96
1433.66	001450	-1375.71	-1386.51	072.96
1433.64	001305	-1375.68	-1386.48	072.96
1433.62	001341	-1375.66	-1386.46	072.96
1433.62	001500	-1375.66	-1386.46	072.96
1433.60	001282	-1375.65	-1386.45	072.96
1433.57	001527	-1375.61	-1386.41	072.96
1433.53	001418	-1375.58	-1386.38	072.96
1433.52	001377	-1375.56	-1386.36	072.96
1433.48	001291	-1375.52	-1386.32	072.96
1433.47	001286	-1375.52	-1386.32	072.96
1433.47	001414	-1375.52	-1386.32	072.96
1433.45	001555	-1375.49	-1386.29	072.96
1433.42	001450	-1375.47	-1386.27	072.96
1433.42	001445	-1375.47	-1386.27	072.96
1433.42	001405	-1375.46	-1386.26	072.96
1433.40	001355	-1375.45	-1386.25	072.96
1433.37	001423	-1375.42	-1386.22	072.96
1433.37	001550	-1375.42	-1386.22	072.96
1433.33	001545	-1375.38	-1386.18	072.96
1433.33	001441	-1375.37	-1386.17	072.96
1433.30	001364	-1375.35	-1386.15	072.96
1433.28	001373	-1375.32	-1386.12	072.96
1433.25	001450	-1375.29	-1386.09	072.96
1433.23	001582	-1375.27	-1386.07	072.96
1433.23	001459	-1375.27	-1386.07	072.96
1433.21	001332	-1375.26	-1386.06	072.96
1433.19	001300	-1375.23	-1386.03	072.96
1433.18	001286	-1375.23	-1386.03	072.96
1433.16	001550	-1375.21	-1386.01	072.96
1433.14	001264	-1375.18	-1385.98	072.96
1433.13	001223	-1375.18	-1385.98	072.96
1433.10	001205	-1375.15	-1385.95	072.96
1433.08	001382	-1375.13	-1385.93	072.96
1433.08	001364	-1375.13	-1385.93	072.96
1433.06	001505	-1375.10	-1385.90	072.96
1433.04	001486	-1375.08	-1385.88	072.96
1433.03	001491	-1375.08	-1385.88	072.96
1432.99	001368	-1375.04	-1385.84	072.96
1432.99	001482	-1375.03	-1385.83	072.96
1432.97	001386	-1375.01	-1385.81	072.96
1432.95	001550	-1374.99	-1385.79	072.96
1432.94	001373	-1374.98	-1385.78	072.96
1432.94	001350	-1374.98	-1385.78	072.96
1432.94	001464	-1374.98	-1385.78	072.96
1432.92	001614	-1374.97	-1385.77	072.96
1432.89	001400	-1374.94	-1385.74	072.96
1432.88	001414	-1374.92	-1385.72	072.96
1432.85	001523	-1374.89	-1385.69	072.96
1432.83	001391	-1374.87	-1385.67	072.96
1432.79	001432	-1374.84	-1385.64	072.96
1432.75	001414	-1374.80	-1385.60	072.96
1432.75	001509	-1374.79	-1385.59	072.96
1432.75	001455	-1374.79	-1385.59	072.96
1432.73	001491	-1374.77	-1385.57	072.96
1432.70	001382	-1374.74	-1385.54	072.96
1432.70	001355	-1374.74	-1385.54	072.96
1432.68	001382	-1374.73	-1385.53	072.96
1432.65	001436	-1374.69	-1385.49	072.96
1432.65	001468	-1374.69	-1385.49	072.96
1432.62	001459	-1374.66	-1385.46	072.96
1432.60	001441	-1374.65	-1385.45	072.96
1432.58	001400	-1374.63	-1385.43	072.96
1432.55	001586	-1374.60	-1385.40	072.96
1432.55	001377	-1374.59	-1385.39	072.96
1432.51	001441	-1374.55	-1385.35	072.96
1432.50	001555	-1374.55	-1385.35	072.96
1432.50	001336	-1374.54	-1385.34	072.96
1432.47	001500	-1374.51	-1385.31	072.96
1432.46	001505	-1374.50	-1385.30	072.96
1432.45	001459	-1374.50	-1385.30	072.96
1432.46	001409	-1374.50	-1385.30	072.96
1432.45	001414	-1374.49	-1385.29	072.96
1432.41	001505	-1374.46	-1385.26	072.96
1432.38	001486	-1374.43	-1385.23	072.96
1432.36	001455	-1374.40	-1385.20	072.96
1432.34	001505	-1374.39	-1385.19	072.96
1432.31	001450	-1374.36	-1385.16	072.96
1432.28	001673	-1374.33	-1385.13	072.96
1432.26	001418	-1374.31	-1385.11	072.96
1432.26	001545	-1374.30	-1385.10	072.96
1432.25	001423	-1374.29	-1385.09	072.96
1432.22	001559	-1374.26	-1385.06	072.96
1432.21	001523	-1374.26	-1385.06	072.96
1432.18	001577	-1374.23	-1385.03	072.96
1432.17	001564	-1374.21	-1385.01	072.96
1432.17	001532	-1374.21	-1385.01	072.96
1432.16	001509	-1374.21	-1385.01	072.96
1432.13	001664	-1374.17	-1384.97	072.96
1432.12	001545	-1374.16	-1384.96	072.96
1432.10	001518	-1374.14	-1384.94	072.96
1432.07	001509	-1374.11	-1384.91	072.96
1432.07	001632	-1374.11	-1384.91	072.96
1432.06	001495	-1374.11	-1384.91	072.96
1432.02	001482	-1374.07	-1384.87	072.96
1432.02	001700	-1374.06	-1384.86	072.96
1431.99	001555	-1374.04	-1384.84	072.96
1431.97	001541	-1374.02	-1384.82	072.96
1431.97	001391	-1374.02	-1384.82	072.96
1431.97	001595	-1374.02	-1384.82	072.96
1431.97	001664	-1374.02	-1384.82	072.96
1431.95	001623	-1373.99	-1384.79	072.96
1431.93	001550	-1373.97	-1384.77	072.96
1431.91	001600	-1373.96	-1384.76	072.96
1431.88	001577	-1373.92	-1384.72	072.96
1431.88	001573	-1373.92	-1384.72	072.96
1431.87	001623	-1373.92	-1384.72	072.96
1431.84	001482	-1373.88	-1384.68	072.96
1431.83	001618	-1373.87	-1384.67	072.96
1431.80	001577	-1373.84	-1384.64	072.96
1431.78	001727	-1373.82	-1384.62	072.96
1431.77	001541	-1373.82	-1384.62	072.96
1431.74	001555	-1373.78	-1384.58	072.96
1431.73	001555	-1373.78	-1384.58	072.96
1431.73	001573	-1373.78	-1384.58	072.96
1431.71	001677	-1373.76	-1384.56	072.96
1431.68	001532	-1373.73	-1384.53	072.96
1431.67	001618	-1373.72	-1384.52	072.96
1431.64	001550	-1373.68	-1384.48	072.96
1431.63	001586	-1373.67	-1384.47	072.96
1431.59	001500	-1373.63	-1384.43	072.96
1431.59	001636	-1373.63	-1384.43	072.96
1431.58	001714	-1373.62	-1384.42	072.96
1431.54	001745	-1373.59	-1384.39	072.96
1431.54	001568	-1373.58	-1384.38	072.96
1431.54	001827	-1373.58	-1384.38	072.96
1431.52	001655	-1373.56	-1384.36	072.96
1431.50	001636	-1373.54	-1384.34	072.96
1431.49	001668	-1373.53	-1384.33	072.96
1431.49	001677	-1373.53	-1384.33	072.96
1431.44	001786	-1373.49	-1384.29	072.96
1431.43	001814	-1373.47	-1384.27	072.96
1431.40	001741	-1373.44	-1384.24	072.96
1431.39	001818	-1373.44	-1384.24	072.96
1431.36	001768	-1373.40	-1384.20	072.96
1431.35	001718	-1373.39	-1384.19	072.96
1431.33	001695	-1373.38	-1384.18	072.96
1431.31	001759	-1373.36	-1384.16	072.96
1431.30	001632	-1373.34	-1384.14	072.96
1431.28	002018	-1373.33	-1384.13	072.96
1431.25	001832	-1373.29	-1384.09	072.96
1431.25	001914	-1373.29	-1384.09	072.96
1431.25	001727	-1373.29	-1384.09	072.96
1431.22	001764	-1373.26	-1384.06	072.96
1431.20	001777	-1373.25	-1384.05	072.96
1431.17	001818	-1373.21	-1384.01	072.96
1431.15	001791	-1373.20	-1384.00	072.96
1431.15	001868	-1373.20	-1384.00	072.96
1431.12	001732	-1373.16	-1383.96	072.96
1431.10	001741	-1373.15	-1383.95	072.96
1431.10	001855	-1373.14	-1383.94	072.96
1431.06	001836	-1373.10	-1383.90	072.96
1431.06	001859	-1373.10	-1383.90	072.96
1431.04	001932	-1373.08	-1383.88	072.96
1431.03	001759	-1373.07	-1383.87	072.96
1431.05	001882	-1373.09	-1383.89	072.96
1431.03	002018	-1373.08	-1383.88	072.96
1431.01	001877	-1373.05	-1383.85	072.96
1431.00	002027	-1373.04	-1383.84	072.96
1430.96	002032	-1373.00	-1383.80	072.96
1430.95	002050	-1372.99	-1383.79	072.96
1430.91	002073	-1372.95	-1383.75	072.96
1430.87	001914	-1372.91	-1383.71	072.96
1430.86	002014	-1372.91	-1383.71	072.96
1430.83	002141	-1372.88	-1383.68	072.96
1430.82	002036	-1372.86	-1383.66	072.96
1430.81	002036	-1372.86	-1383.66	072.96
1430.81	002032	-1372.85	-1383.65	072.96
1430.77	002032	-1372.81	-1383.61	072.96
1430.77	002027	-1372.81	-1383.61	072.96
1430.75	002082	-1372.80	-1383.60	072.96
1430.72	002059	-1372.77	-1383.57	072.96
1430.72	001827	-1372.76	-1383.56	072.96
1430.69	002164	-1372.74	-1383.54	072.96
1430.67	001909	-1372.71	-1383.51	072.96
1430.67	002014	-1372.71	-1383.51	072.96
1430.63	001950	-1372.67	-1383.47	072.96
1430.62	002050	-1372.66	-1383.46	072.96
1430.61	002009	-1372.65	-1383.45	072.96
1430.57	002055	-1372.62	-1383.42	072.96
1430.57	002005	-1372.62	-1383.42	072.96
1430.56	002259	-1372.60	-1383.40	072.96
1430.56	001982	-1372.61	-1383.41	072.96
1430.55	001964	-1372.59	-1383.39	072.96
1430.52	001982	-1372.57	-1383.37	072.96
1430.51	001955	-1372.55	-1383.35	072.96
1430.48	002050	-1372.52	-1383.32	072.96
1430.45	001905	-1372.50	-1383.30	072.96
1430.43	002077	-1372.47	-1383.27	072.96
1430.42	002177	-1372.47	-1383.27	072.96
1430.38	002059	-1372.42	-1383.22	072.96
1430.38	002127	-1372.42	-1383.22	072.96
1430.34	002245	-1372.38	-1383.18	072.96
1430.33	002127	-1372.37	-1383.17	072.96
1430.33	002118	-1372.37	-1383.17	072.96
1430.32	002145	-1372.36	-1383.16	072.96
1430.29	002082	-1372.34	-1383.14	072.96
1430.28	001786	-1372.33	-1383.13	072.96
1430.28	002095	-1372.33	-1383.13	072.96
1430.26	002041	-1372.30	-1383.10	072.96
1430.23	002155	-1372.28	-1383.08	072.96
1430.23	002255	-1372.28	-1383.08	072.96
1430.20	002155	-1372.25	-1383.05	072.96
1430.19	001995	-1372.23	-1383.03	072.96
1430.19	002014	-1372.23	-1383.03	072.96
1430.15	002023	-1372.20	-1383.00	072.96
1430.14	002041	-1372.18	-1382.98	072.96
1430.13	002091	-1372.18	-1382.98	072.96
1430.09	002095	-1372.14	-1382.94	072.96
1430.09	002114	-1372.13	-1382.93	072.96
1430.09	002073	-1372.13	-1382.93	072.96
1430.09	002114	-1372.13	-1382.93	072.96
1430.09	002150	-1372.13	-1382.93	072.96
1430.05	002109	-1372.09	-1382.89	072.96
1430.02	002150	-1372.07	-1382.87	072.96
1429.99	002341	-1372.04	-1382.84	072.96
1429.98	002032	-1372.03	-1382.83	072.96
1429.90	002073	-1371.94	-1382.74	072.96
1429.78	002268	-1371.83	-1382.63	072.96
1429.71	002173	-1371.75	-1382.55	072.96
1429.70	002359	-1371.75	-1382.55	072.96
1429.74	002177	-1371.79	-1382.59	072.96
1429.75	002277	-1371.79	-1382.59	072.96
1429.75	002077	-1371.79	-1382.59	072.96
1429.71	002145	-1371.76	-1382.56	072.96
1429.69	002045	-1371.73	-1382.53	072.96
1429.66	002259	-1371.70	-1382.50	072.96
1429.65	002132	-1371.70	-1382.50	072.96
1429.62	002077	-1371.66	-1382.46	072.96
1429.61	002182	-1371.65	-1382.45	072.96
1429.60	002164	-1371.64	-1382.44	072.96
1429.56	002277	-1371.60	-1382.40	072.96
1429.56	002250	-1371.60	-1382.40	072.96
1429.51	002027	-1371.56	-1382.36	072.96
1429.51	002191	-1371.55	-1382.35	072.96
1429.51	002418	-1371.55	-1382.35	072.96
1429.47	002250	-1371.51	-1382.31	072.96
1429.46	002468	-1371.51	-1382.31	072.96
1429.46	002159	-1371.51	-1382.31	072.96
1429.46	002273	-1371.51	-1382.31	072.96
1429.44	002205	-1371.48	-1382.28	072.96
1429.41	002305	-1371.46	-1382.26	072.96
1429.38	002205	-1371.43	-1382.23	072.96
1429.36	002282	-1371.41	-1382.21	072.96
1429.36	002323	-1371.41	-1382.21	072.96
1429.33	002364	-1371.37	-1382.17	072.96
1429.29	002336	-1371.34	-1382.14	072.96
1429.27	002159	-1371.31	-1382.11	072.96
1429.25	002355	-1371.30	-1382.10	072.96
1429.23	002295	-1371.27	-1382.07	072.96
1429.22	002436	-1371.26	-1382.06	072.96
1429.22	002391	-1371.26	-1382.06	072.96
1429.21	002341	-1371.26	-1382.06	072.96
1429.19	002505	-1371.24	-1382.04	072.96
1429.17	002277	-1371.22	-1382.02	072.96
1429.15	002209	-1371.20	-1382.00	072.96
1429.13	002627	-1371.17	-1381.97	072.96
1429.11	002391	-1371.16	-1381.96	072.96
1429.08	002327	-1371.13	-1381.93	072.96
1429.07	002509	-1371.12	-1381.92	072.96
1429.07	002155	-1371.12	-1381.92	072.96
1429.05	002473	-1371.10	-1381.90	072.96
1429.03	002518	-1371.07	-1381.87	072.96
1429.02	002441	-1371.06	-1381.86	072.96
1428.99	002327	-1371.03	-1381.83	072.96
1428.98	002659	-1371.02	-1381.82	072.96
1428.98	002536	-1371.02	-1381.82	072.96
1428.98	002464	-1371.02	-1381.82	072.96
1428.98	002477	-1371.02	-1381.82	072.96
1428.95	002723	-1371.00	-1381.80	072.96
1428.93	002423	-1370.97	-1381.77	072.96
1428.89	002714	-1370.93	-1381.73	072.96
1428.88	002545	-1370.93	-1381.73	072.96
1428.84	002677	-1370.89	-1381.69	072.96
1428.83	002673	-1370.87	-1381.67	072.96
1428.79	002573	-1370.83	-1381.63	072.96
1428.78	002427	-1370.83	-1381.63	072.96
1428.76	002668	-1370.81	-1381.61	072.96
1428.74	002755	-1370.78	-1381.58	072.96
1428.74	002586	-1370.78	-1381.58	072.96
1428.73	002723	-1370.77	-1381.57	072.96
1428.70	002714	-1370.74	-1381.54	072.96
1428.69	002591	-1370.73	-1381.53	072.96
1428.67	002705	-1370.71	-1381.51	072.96
1428.64	002700	-1370.68	-1381.48	072.96
1428.64	002800	-1370.68	-1381.48	072.96
1428.63	002841	-1370.67	-1381.47	072.96
1428.59	002559	-1370.64	-1381.44	072.96
1428.57	002677	-1370.62	-1381.42	072.96
1428.54	-000006	-1370.59	-1381.39	072.96
1428.53	002523	-1370.58	-1381.38	072.96
1428.49	002618	-1370.54	-1381.34	072.96
1428.49	002768	-1370.54	-1381.34	072.96
1428.49	002659	-1370.53	-1381.33	072.96
1428.48	002764	-1370.52	-1381.32	072.96
1428.49	002791	-1370.54	-1381.34	072.96
1428.47	002641	-1370.52	-1381.32	072.96
1428.45	002627	-1370.49	-1381.29	072.96
1428.41	002695	-1370.46	-1381.26	072.96
1428.40	002727	-1370.44	-1381.24	072.96
1428.39	002768	-1370.43	-1381.23	072.96
1428.35	002741	-1370.40	-1381.20	072.96
1428.34	002686	-1370.39	-1381.19	072.96
1428.30	002714	-1370.35	-1381.15	072.96
1428.30	002573	-1370.35	-1381.15	072.96
1428.27	002823	-1370.32	-1381.12	072.96
1428.25	002759	-1370.30	-1381.10	072.96
1428.25	002741	-1370.30	-1381.10	072.96
1428.25	002714	-1370.30	-1381.10	072.96
1428.25	002686	-1370.29	-1381.09	072.96
1428.21	002814	-1370.26	-1381.06	072.96
1428.20	002795	-1370.25	-1381.05	072.96
1428.18	002532	-1370.22	-1381.02	072.96
1428.16	002614	-1370.20	-1381.00	072.96
1428.12	002732	-1370.17	-1380.97	072.96
1428.11	002686	-1370.15	-1380.95	072.96
1428.11	003014	-1370.15	-1380.95	072.96
1428.09	002659	-1370.14	-1380.94	072.96
1428.06	002755	-1370.10	-1380.90	072.96
1428.06	002614	-1370.10	-1380.90	072.96
1428.04	002705	-1370.09	-1380.89	072.96
1428.01	002736	-1370.06	-1380.86	072.96
1428.01	002655	-1370.06	-1380.86	072.96
1428.01	002577	-1370.06	-1380.86	072.96
1428.01	002418	-1370.06	-1380.86	072.96
1427.98	002523	-1370.02	-1380.82	072.96
1427.96	002577	-1370.00	-1380.80	072.96
1427.92	002541	-1369.96	-1380.76	072.96
1427.91	002505	-1369.96	-1380.76	072.96
1427.88	002377	-1369.93	-1380.73	072.96
1427.83	002591	-1369.87	-1380.67	072.96
1427.79	002564	-1369.83	-1380.63	072.96
1427.77	002659	-1369.81	-1380.61	072.96
1427.77	002436	-1369.81	-1380.61	072.96
1427.76	002673	-1369.81	-1380.61	072.96
1427.74	002577	-1369.79	-1380.59	072.96
1427.72	002468	-1369.77	-1380.57	072.96
1427.72	002573	-1369.77	-1380.57	072.96
1427.68	002695	-1369.72	-1380.52	072.96
1427.67	002577	-1369.72	-1380.52	072.96
1427.64	002668	-1369.69	-1380.49	072.96
1427.62	002700	-1369.67	-1380.47	072.96
1427.62	002418	-1369.67	-1380.47	072.96
1427.60	002445	-1369.65	-1380.45	072.96
1427.58	002500	-1369.62	-1380.42	072.96
1427.57	002755	-1369.62	-1380.42	072.96
1427.54	002609	-1369.58	-1380.38	072.96
1427.53	002736	-1369.57	-1380.37	072.96
1427.50	002464	-1369.55	-1380.35	072.96
1427.48	002405	-1369.52	-1380.32	072.96
1427.48	002341	-1369.52	-1380.32	072.96
1427.48	002455	-1369.52	-1380.32	072.96
1427.48	002632	-1369.52	-1380.32	072.96
1427.45	002441	-1369.49	-1380.29	072.96
1427.41	002414	-1369.46	-1380.26	072.96
1427.38	002509	-1369.43	-1380.23	072.96
1427.38	002618	-1369.42	-1380.22	072.96
1427.36	002227	-1369.40	-1380.20	072.96
1427.33	002595	-1369.38	-1380.18	072.96
1427.30	002582	-1369.34	-1380.14	072.96
1427.29	002514	-1369.33	-1380.13	072.96
1427.28	002527	-1369.33	-1380.13	072.96
1427.24	002414	-1369.29	-1380.09	072.96
1427.24	002268	-1369.28	-1380.08	072.96
1427.24	002505	-1369.28	-1380.08	072.96
1427.24	002459	-1369.28	-1380.08	072.96
1427.24	002318	-1369.28	-1380.08	072.96
1427.20	002505	-1369.24	-1380.04	072.96
1427.18	002332	-1369.23	-1380.03	072.96
1427.14	002377	-1369.19	-1379.99	072.96
1427.14	002286	-1369.19	-1379.99	072.96
1427.13	002364	-1369.17	-1379.97	072.96
1427.09	002618	-1369.14	-1379.94	072.96
1427.09	002382	-1369.14	-1379.94	072.96
1427.06	002386	-1369.11	-1379.91	072.96
1427.04	002541	-1369.09	-1379.89	072.96
1427.03	002477	-1369.07	-1379.87	072.96
1427.00	002495	-1369.04	-1379.84	072.96
1427.00	002282	-1369.04	-1379.84	072.96
1427.00	002495	-1369.04	-1379.84	072.96
1427.00	002427	-1369.04	-1379.84	072.96
1426.98	002455	-1369.03	-1379.83	072.96
1426.95	002255	-1368.99	-1379.79	072.96
1426.93	002395	-1368.97	-1379.77	072.96
1426.90	002523	-1368.94	-1379.74	072.96
1426.90	002436	-1368.94	-1379.74	072.96
1426.87	002509	-1368.91	-1379.71	072.96
1426.85	002618	-1368.89	-1379.69	072.96
1426.81	002541	-1368.85	-1379.65	072.96
1426.80	002591	-1368.85	-1379.65	072.96
1426.79	002318	-1368.83	-1379.63	072.96
1426.76	002505	-1368.81	-1379.61	072.96
1426.75	002464	-1368.80	-1379.60	072.96
1426.75	002241	-1368.80	-1379.60	072.96
1426.74	002345	-1368.78	-1379.58	072.96
1426.71	002500	-1368.75	-1379.55	072.96
1426.70	002282	-1368.75	-1379.55	072.96
1426.67	002673	-1368.71	-1379.51	072.96
1426.66	002373	-1368.70	-1379.50	072.96
1426.63	002414	-1368.67	-1379.47	072.96
1426.61	002364	-1368.65	-1379.45	072.96
1426.59	002114	-1368.64	-1379.44	072.96
1426.56	002200	-1368.61	-1379.41	072.96
1426.56	002264	-1368.61	-1379.41	072.96
1426.52	002295	-1368.56	-1379.36	072.96
1426.51	002277	-1368.56	-1379.36	072.96
1426.51	002309	-1368.56	-1379.36	072.96
1426.51	002436	-1368.56	-1379.36	072.96
1426.51	002305	-1368.56	-1379.36	072.96
1426.48	002336	-1368.52	-1379.32	072.96
1426.47	002214	-1368.51	-1379.31	072.96
1426.43	002277	-1368.47	-1379.27	072.96
1426.42	002368	-1368.46	-1379.26	072.96
1426.40	002464	-1368.44	-1379.24	072.96
1426.37	002427	-1368.41	-1379.21	072.96
1426.35	002391	-1368.40	-1379.20	072.96
1426.32	002145	-1368.36	-1379.16	072.96
1426.32	002191	-1368.36	-1379.16	072.96
1426.31	002250	-1368.35	-1379.15	072.96
1426.28	002664	-1368.32	-1379.12	072.96
1426.27	002505	-1368.32	-1379.12	072.96
1426.27	002136	-1368.32	-1379.12	072.96
1426.27	002341	-1368.31	-1379.11	072.96
1426.22	002332	-1368.27	-1379.07	072.96
1426.20	002264	-1368.25	-1379.05	072.96
1426.18	002464	-1368.22	-1379.02	072.96
1426.18	002277	-1368.22	-1379.02	072.96
1426.16	002432	-1368.21	-1379.01	072.96
1426.13	002350	-1368.17	-1378.97	072.96
1426.13	002305	-1368.17	-1378.97	072.96
1426.09	002214	-1368.14	-1378.94	072.96
1426.08	002459	-1368.12	-1378.92	072.96
1426.07	002323	-1368.11	-1378.91	072.96
1426.04	002155	-1368.08	-1378.88	072.96
1426.04	002277	-1368.09	-1378.89	072.96
1426.07	002241	-1368.12	-1378.92	072.96
1426.04	002186	-1368.09	-1378.89	072.96
1426.03	002282	-1368.07	-1378.87	072.96
1425.98	002332	-1368.03	-1378.83	072.96
1425.96	002595	-1368.01	-1378.81	072.96
1425.93	002132	-1367.98	-1378.78	072.96
1425.89	002536	-1367.93	-1378.73	072.96
1425.82	002491	-1367.86	-1378.66	072.96
1425.76	002255	-1367.80	-1378.60	072.96
1425.74	002264	-1367.78	-1378.58	072.96
1425.75	002536	-1367.79	-1378.59	072.96
1425.76	002318	-1367.80	-1378.60	072.96
1425.74	002609	-1367.79	-1378.59	072.96
1425.74	002309	-1367.78	-1378.58	072.96
1425.71	002455	-1367.76	-1378.56	072.96
1425.69	002259	-1367.74	-1378.54	072.96
1425.68	002295	-1367.73	-1378.53	072.96
1425.65	002318	-1367.69	-1378.49	072.96
1425.64	002491	-1367.69	-1378.49	072.96
1425.62	002214	-1367.67	-1378.47	072.96
1425.60	002332	-1367.64	-1378.44	072.96
1425.59	002586	-1367.63	-1378.43	072.96
1425.55	002377	-1367.60	-1378.40	072.96
1425.55	002482	-1367.59	-1378.39	072.96
1425.52	002295	-1367.57	-1378.37	072.96
1425.50	002314	-1367.54	-1378.34	072.96
1425.50	002409	-1367.54	-1378.34	072.96
1425.50	002373	-1367.54	-1378.34	072.96
1425.50	002414	-1367.54	-1378.34	072.96
1425.47	002473	-1367.52	-1378.32	072.96
1425.45	002482	-1367.49	-1378.29	072.96
1425.41	002445	-1367.45	-1378.25	072.96
1425.40	002618	-1367.45	-1378.25	072.96
1425.38	002550	-1367.42	-1378.22	072.96
1425.35	002555	-1367.40	-1378.20	072.96
1425.33	002477	-1367.38	-1378.18	072.96
1425.31	002577	-1367.35	-1378.15	072.96
1425.30	002400	-1367.34	-1378.14	072.96
1425.26	002618	-1367.30	-1378.10	072.96
1425.26	002377	-1367.30	-1378.10	072.96
1425.26	002509	-1367.30	-1378.10	072.96
1425.25	002600	-1367.30	-1378.10	072.96
1425.23	002545	-1367.28	-1378.08	072.96
1425.21	002514	-1367.25	-1378.05	072.96
1425.21	002477	-1367.25	-1378.05	072.96
1425.16	002582	-1367.20	-1378.00	072.96
1425.15	002618	-1367.19	-1377.99	072.96
1425.12	002777	-1367.17	-1377.97	072.96
1425.11	002695	-1367.16	-1377.96	072.96
1425.09	002514	-1367.13	-1377.93	072.96
1425.06	002536	-1367.11	-1377.91	072.96
1425.06	002550	-1367.11	-1377.91	072.96
1425.02	002364	-1367.06	-1377.86	072.96
1425.02	002623	-1367.06	-1377.86	072.96
1425.01	002586	-1367.06	-1377.86	072.96
1425.02	002623	-1367.06	-1377.86	072.96
1425.02	002564	-1367.06	-1377.86	072.96
1425.01	002532	-1367.05	-1377.85	072.96
1424.97	002614	-1367.01	-1377.81	072.96
1424.94	002609	-1366.99	-1377.79	072.96
1424.92	002618	-1366.96	-1377.76	072.96
1424.92	002700	-1366.96	-1377.76	072.96
1424.88	002732	-1366.92	-1377.72	072.96
1424.85	002586	-1366.90	-1377.70	072.96
1424.82	002677	-1366.87	-1377.67	072.96
1424.82	002605	-1366.86	-1377.66	072.96
1424.79	002582	-1366.83	-1377.63	072.96
1424.77	002677	-1366.82	-1377.62	072.96
1424.77	002586	-1366.82	-1377.62	072.96
1424.77	002709	-1366.82	-1377.62	072.96
1424.75	002677	-1366.79	-1377.59	072.96
1424.73	002650	-1366.77	-1377.57	072.96
1424.72	002673	-1366.76	-1377.56	072.96
1424.68	002609	-1366.72	-1377.52	072.96
1424.67	002782	-1366.71	-1377.51	072.96
1424.63	002500	-1366.68	-1377.48	072.96
1424.63	002541	-1366.67	-1377.47	072.96
1424.61	002491	-1366.65	-1377.45	072.96
1424.58	002641	-1366.62	-1377.42	072.96
1424.57	002518	-1366.61	-1377.41	072.96
1424.54	002545	-1366.58	-1377.38	072.96
1424.53	002759	-1366.58	-1377.38	072.96
1424.53	002545	-1366.58	-1377.38	072.96
1424.53	002577	-1366.58	-1377.38	072.96
1424.53	002568	-1366.57	-1377.37	072.96
1424.50	002545	-1366.54	-1377.34	072.96
1424.48	002527	-1366.53	-1377.33	072.96
1424.45	002459	-1366.50	-1377.30	072.96
1424.44	002673	-1366.48	-1377.28	072.96
1424.42	002518	-1366.46	-1377.26	072.96
1424.39	002618	-1366.43	-1377.23	072.96
1424.38	002805	-1366.42	-1377.22	072.96
1424.34	002395	-1366.39	-1377.19	072.96
1424.34	002414	-1366.38	-1377.18	072.96
1424.31	002459	-1366.35	-1377.15	072.96
1424.29	002741	-1366.34	-1377.14	072.96
1424.29	002405	-1366.33	-1377.13	072.96
1424.29	002586	-1366.33	-1377.13	072.96
1424.28	002650	-1366.32	-1377.12	072.96
1424.25	002527	-1366.30	-1377.10	072.96
1424.24	002495	-1366.28	-1377.08	072.96
1424.20	002582	-1366.24	-1377.04	072.96
1424.19	002636	-1366.24	-1377.04	072.96
1424.17	002418	-1366.21	-1377.01	072.96
1424.15	002705	-1366.19	-1376.99	072.96
1424.15	002595	-1366.19	-1376.99	072.96
1424.14	002395	-1366.18	-1376.98	072.96
1424.10	002386	-1366.14	-1376.94	072.96
1424.09	002309	-1366.14	-1376.94	072.96
1424.06	002477	-1366.10	-1376.90	072.96
1424.05	002482	-1366.09	-1376.89	072.96
1424.05	002309	-1366.09	-1376.89	072.96
1424.05	002473	-1366.09	-1376.89	072.96
1424.05	002564	-1366.09	-1376.89	072.96
1424.03	002541	-1366.08	-1376.88	072.96
1424.00	002432	-1366.05	-1376.85	072.96
1423.97	002395	-1366.01	-1376.81	072.96
1423.95	002627	-1366.00	-1376.80	072.96
1423.93	002205	-1365.97	-1376.77	072.96
1423.90	002477	-1365.95	-1376.75	072.96
1423.86	002477	-1365.90	-1376.70	072.96
1423.86	002277	-1365.90	-1376.70	072.96
1423.82	002182	-1365.87	-1376.67	072.96
1423.81	002300	-1365.85	-1376.65	072.96
1423.81	002268	-1365.85	-1376.65	072.96
1423.80	002459	-1365.85	-1376.65	072.96
1423.78	002191	-1365.83	-1376.63	072.96
1423.76	002286	-1365.80	-1376.60	072.96
1423.76	002400	-1365.80	-1376.60	072.96
1423.71	002214	-1365.76	-1376.56	072.96
1423.71	002318	-1365.76	-1376.56	072.96
1423.70	002264	-1365.74	-1376.54	072.96
1423.67	002323	-1365.71	-1376.51	072.96
1423.66	002386	-1365.71	-1376.51	072.96
1423.64	002441	-1365.68	-1376.48	072.96
1423.61	002327	-1365.66	-1376.46	072.96
1423.61	002282	-1365.66	-1376.46	072.96
1423.57	002186	-1365.62	-1376.42	072.96
1423.57	002168	-1365.61	-1376.41	072.96
1423.57	002145	-1365.61	-1376.41	072.96
1423.57	002300	-1365.61	-1376.41	072.96
1423.55	002350	-1365.59	-1376.39	072.96
1423.52	002232	-1365.56	-1376.36	072.96
1423.49	002091	-1365.53	-1376.33	072.96
1423.47	002391	-1365.51	-1376.31	072.96
1423.46	002423	-1365.50	-1376.30	072.96
1423.42	002255	-1365.47	-1376.27	072.96
1423.40	002414	-1365.45	-1376.25	072.96
1423.37	002105	-1365.42	-1376.22	072.96
1423.36	002150	-1365.41	-1376.21	072.96
1423.33	002050	-1365.37	-1376.17	072.96
1423.32	002291	-1365.37	-1376.17	072.96
1423.32	002259	-1365.37	-1376.17	072.96
1423.32	002145	-1365.37	-1376.17	072.96
1423.30	002168	-1365.35	-1376.15	072.96
1423.28	002100	-1365.32	-1376.12	072.96
1423.27	002209	-1365.31	-1376.11	072.96
1423.23	002173	-1365.27	-1376.07	072.96
1423.22	002218	-1365.27	-1376.07	072.96
1423.19	002127	-1365.24	-1376.04	072.96
1423.18	002032	-1365.22	-1376.02	072.96
1423.18	002082	-1365.22	-1376.02	072.96
1423.15	002214	-1365.19	-1375.99	072.96
1423.13	002159	-1365.18	-1375.98	072.96
1423.10	002364	-1365.14	-1375.94	072.96
1423.08	002250	-1365.13	-1375.93	072.96
1423.08	002186	-1365.13	-1375.93	072.96
1423.08	002150	-1365.13	-1375.93	072.96
1423.08	001977	-1365.13	-1375.93	072.96
1423.06	002164	-1365.11	-1375.91	072.96
1423.03	002123	-1365.08	-1375.88	072.96
1423.01	002218	-1365.06	-1375.86	072.96
1422.99	002250	-1365.03	-1375.83	072.96
1422.98	002123	-1365.03	-1375.83	072.96
1422.95	002095	-1365.00	-1375.80	072.96
1422.94	002032	-1364.98	-1375.78	072.96
1422.90	002141	-1364.95	-1375.75	072.96
1422.89	002100	-1364.93	-1375.73	072.96
1422.89	002127	-1364.93	-1375.73	072.96
1422.87	002250	-1364.91	-1375.71	072.96
1422.84	002264	-1364.89	-1375.69	072.96
1422.84	002232	-1364.89	-1375.69	072.96
1422.84	002059	-1364.88	-1375.68	072.96
1422.80	002032	-1364.84	-1375.64	072.96
1422.79	002191	-1364.84	-1375.64	072.96
1422.75	002332	-1364.79	-1375.59	072.96
1422.74	002173	-1364.79	-1375.59	072.96
1422.73	002114	-1364.78	-1375.58	072.96
1422.70	002400	-1364.74	-1375.54	072.96
1422.69	002205	-1364.73	-1375.53	072.96
1422.65	002159	-1364.70	-1375.50	072.96
1422.64	002368	-1364.68	-1375.48	072.96
1422.60	002123	-1364.64	-1375.44	072.96
1422.60	002250	-1364.64	-1375.44	072.96
1422.60	002191	-1364.64	-1375.44	072.96
1422.60	002050	-1364.64	-1375.44	072.96
1422.60	002223	-1364.64	-1375.44	072.96
1422.57	002236	-1364.62	-1375.42	072.96
1422.55	002123	-1364.60	-1375.40	072.96
1422.51	002173	-1364.56	-1375.36	072.96
1422.50	002068	-1364.55	-1375.35	072.96
1422.50	002136	-1364.54	-1375.34	072.96
1422.47	001968	-1364.51	-1375.31	072.96
1422.45	002200	-1364.50	-1375.30	072.96
1422.41	002259	-1364.45	-1375.25	072.96
1422.39	002295	-1364.44	-1375.24	072.96
1422.37	002100	-1364.41	-1375.21	072.96
1422.36	002205	-1364.40	-1375.20	072.96
1422.36	002168	-1364.40	-1375.20	072.96
1422.34	002050	-1364.39	-1375.19	072.96
1422.32	002236	-1364.37	-1375.17	072.96
1422.31	002295	-1364.35	-1375.15	072.96
1422.29	002045	-1364.34	-1375.14	072.96
1422.26	002091	-1364.31	-1375.11	072.96
1422.26	002114	-1364.31	-1375.11	072.96
1422.26	002250	-1364.31	-1375.11	072.96
1422.22	002227	-1364.27	-1375.07	072.96
1422.21	002132	-1364.26	-1375.06	072.96
1422.19	002173	-1364.23	-1375.03	072.96
1422.16	002250	-1364.21	-1375.01	072.96
1422.16	002223	-1364.20	-1375.00	072.96
1422.13	002191	-1364.17	-1374.97	072.96
1422.12	002245	-1364.16	-1374.96	072.96
1422.12	002273	-1364.16	-1374.96	072.96
1422.12	002086	-1364.16	-1374.96	072.96
1422.12	002041	-1364.16	-1374.96	072.96
1422.08	002259	-1364.13	-1374.93	072.96
1422.06	002164	-1364.11	-1374.91	072.96
1422.02	002373	-1364.07	-1374.87	072.96
1422.02	002250	-1364.06	-1374.86	072.96
1421.93	002295	-1363.98	-1374.78	072.96
1421.85	002236	-1363.89	-1374.69	072.96
1421.78	002191	-1363.83	-1374.63	072.96
1421.78	002114	-1363.82	-1374.62	072.96
1421.78	002182	-1363.82	-1374.62	072.96
1421.81	002255	-1363.85	-1374.65	072.96
1421.79	002405	-1363.83	-1374.63	072.96
1421.78	002164	-1363.82	-1374.62	072.96
1421.74	002209	-1363.79	-1374.59	072.96
1421.73	002327	-1363.77	-1374.57	072.96
1421.68	002195	-1363.73	-1374.53	072.96
1421.68	002318	-1363.73	-1374.53	072.96
1421.68	002286	-1363.73	-1374.53	072.96
1421.68	002359	-1363.72	-1374.52	072.96
1421.64	002355	-1363.68	-1374.48	072.96
1421.61	002177	-1363.65	-1374.45	072.96
1421.58	002400	-1363.63	-1374.43	072.96
1421.57	002286	-1363.62	-1374.42	072.96
1421.54	002395	-1363.58	-1374.38	072.96
1421.53	002391	-1363.58	-1374.38	072.96
1421.52	002227	-1363.56	-1374.36	072.96
1421.51	002400	-1363.56	-1374.36	072.96
1421.49	002332	-1363.54	-1374.34	072.96
1421.49	002245	-1363.53	-1374.33	072.96
1421.47	002277	-1363.51	-1374.31	072.96
1421.44	002427	-1363.48	-1374.28	072.96
1421.44	002368	-1363.48	-1374.28	072.96
1421.43	002268	-1363.47	-1374.27	072.96
1421.39	002450	-1363.44	-1374.24	072.96
1421.35	002314	-1363.39	-1374.19	072.96
1421.33	002550	-1363.37	-1374.17	072.96
1421.30	002577	-1363.35	-1374.15	072.96
1421.30	002423	-1363.34	-1374.14	072.96
1421.30	002341	-1363.34	-1374.14	072.96
1421.29	002409	-1363.34	-1374.14	072.96
1421.28	002477	-1363.32	-1374.12	072.96
1421.25	002286	-1363.29	-1374.09	072.96
1421.25	002432	-1363.29	-1374.09	072.96
1421.21	002445	-1363.26	-1374.06	072.96
1421.20	002514	-1363.24	-1374.04	072.96
1421.20	002591	-1363.24	-1374.04	072.96
1421.17	002505	-1363.22	-1374.02	072.96
1421.15	002527	-1363.19	-1373.99	072.96
1421.15	002595	-1363.19	-1373.99	072.96
1421.10	002405	-1363.15	-1373.95	072.96
1421.10	002545	-1363.14	-1373.94	072.96
1421.06	002536	-1363.11	-1373.91	072.96
1421.05	002536	-1363.10	-1373.90	072.96
1421.05	002523	-1363.10	-1373.90	072.96
1421.05	002382	-1363.10	-1373.90	072.96
1421.05	002555	-1363.10	-1373.90	072.96
1421.04	002659	-1363.08	-1373.88	072.96
1421.01	002827	-1363.05	-1373.85	072.96
1420.97	002468	-1363.01	-1373.81	072.96
1420.96	002686	-1363.00	-1373.80	072.96
1420.95	002818	-1363.00	-1373.80	072.96
1420.93	002682	-1362.98	-1373.78	072.96
1420.91	002636	-1362.95	-1373.75	072.96
1420.87	002700	-1362.92	-1373.72	072.96
1420.86	002673	-1362.90	-1373.70	072.96
1420.81	002655	-1362.86	-1373.66	072.96
1420.81	002827	-1362.86	-1373.66	072.96
1420.81	002900	-1362.86	-1373.66	072.96
1420.81	002764	-1362.85	-1373.65	072.96
1420.77	002791	-1362.81	-1373.61	072.96
1420.76	002995	-1362.81	-1373.61	072.96
1420.74	003018	-1362.79	-1373.59	072.96
1420.72	003018	-1362.76	-1373.56	072.96
1420.70	002905	-1362.75	-1373.55	072.96
1420.67	002877	-1362.72	-1373.52	072.96
1420.67	003109	-1362.71	-1373.51	072.96
1420.64	002995	-1362.69	-1373.49	072.96
1420.62	003086	-1362.66	-1373.46	072.96
1420.60	002918	-1362.65	-1373.45	072.96
1420.57	003227	-1362.61	-1373.41	072.96
1420.57	003145	-1362.61	-1373.41	072.96
1420.57	003009	-1362.61	-1373.41	072.96
1420.57	003082	-1362.61	-1373.41	072.96
1420.56	003095	-1362.60	-1373.40	072.96
1420.53	003318	-1362.57	-1373.37	072.96
1420.52	002991	-1362.56	-1373.36	072.96
1420.48	003277	-1362.52	-1373.32	072.96
1420.47	003164	-1362.52	-1373.32	072.96
1420.46	003364	-1362.50	-1373.30	072.96
1420.43	003141	-1362.47	-1373.27	072.96
1420.40	003318	-1362.44	-1373.24	072.96
1420.38	003355	-1362.42	-1373.22	072.96
1420.36	003450	-1362.41	-1373.21	072.96
1420.33	003505	-1362.38	-1373.18	072.96
1420.33	003414	-1362.37	-1373.17	072.96
1420.33	003509	-1362.37	-1373.17	072.96
1420.32	003523	-1362.37	-1373.17	072.96
1420.31	003818	-1362.36	-1373.16	072.96
1420.28	003600	-1362.32	-1373.12	072.96
1420.27	003414	-1362.31	-1373.11	072.96
1420.23	003586	-1362.28	-1373.08	072.96
1420.22	003523	-1362.27	-1373.07	072.96
1420.20	003991	-1362.25	-1373.05	072.96
1420.18	003895	-1362.23	-1373.03	072.96
1420.18	003932	-1362.23	-1373.03	072.96
1420.14	004068	-1362.19	-1372.99	072.96
1420.14	004368	-1362.18	-1372.98	072.96
1420.12	004136	-1362.16	-1372.96	072.96
1420.09	004009	-1362.13	-1372.93	072.96
1420.09	004355	-1362.13	-1372.93	072.96
1420.09	004255	-1362.13	-1372.93	072.96
1420.09	004145	-1362.13	-1372.93	072.96
1420.09	004127	-1362.13	-1372.93	072.96
1420.06	004414	-1362.10	-1372.90	072.96
1420.02	004523	-1362.07	-1372.87	072.96
1419.99	004436	-1362.03	-1372.83	072.96
1419.99	004568	-1362.03	-1372.83	072.96
1419.95	-000010	-1362.00	-1372.80	072.96
1419.91	005064	-1361.96	-1372.76	072.96
1419.89	005082	-1361.93	-1372.73	072.96
1419.85	005127	-1361.90	-1372.70	072.96
1419.85	005559	-1361.89	-1372.69	072.96
1419.85	005214	-1361.89	-1372.69	072.96
1419.85	005750	-1361.89	-1372.69	072.96
1419.83	005900	-1361.88	-1372.68	072.96
1419.80	006041	-1361.84	-1372.64	072.96
1419.79	006009	-1361.84	-1372.64	072.96
1419.75	006205	-1361.79	-1372.59	072.96
1419.75	006132	-1361.79	-1372.59	072.96
1419.75	006018	-1361.79	-1372.59	072.96
1419.71	006309	-1361.75	-1372.55	072.96
1419.70	006623	-1361.74	-1372.54	072.96
1419.66	006891	-1361.71	-1372.51	072.96
1419.65	006982	-1361.70	-1372.50	072.96
1419.62	007077	-1361.67	-1372.47	072.96
1419.60	007341	-1361.65	-1372.45	072.96
1419.60	007250	-1361.65	-1372.45	072.96
1419.59	007495	-1361.64	-1372.44	072.96
1419.58	007359	-1361.63	-1372.43	072.96
1419.56	007745	-1361.60	-1372.40	072.96
1419.56	007759	-1361.60	-1372.40	072.96
1419.54	007977	-1361.58	-1372.38	072.96
1419.51	008082	-1361.55	-1372.35	072.96
1419.50	008191	-1361.54	-1372.34	072.96
1419.47	008686	-1361.51	-1372.31	072.96
1419.46	008350	-1361.50	-1372.30	072.96
1419.42	009164	-1361.46	-1372.26	072.96
1419.41	009377	-1361.45	-1372.25	072.96
1419.38	009200	-1361.42	-1372.22	072.96
1419.36	009155	-1361.41	-1372.21	072.96
1419.36	009550	-1361.41	-1372.21	072.96
1419.36	009650	-1361.41	-1372.21	072.96
1419.36	009595	-1361.41	-1372.21	072.96
1419.32	009773	-1361.37	-1372.17	072.96
1419.31	010109	-1361.36	-1372.16	072.96
1419.29	010182	-1361.33	-1372.13	072.96
1419.27	010536	-1361.31	-1372.11	072.96
1419.25	010491	-1361.30	-1372.10	072.96
1419.22	010623	-1361.27	-1372.07	072.96
1419.22	010655	-1361.26	-1372.06	072.96
1419.20	010509	-1361.24	-1372.04	072.96
1419.17	011159	-1361.21	-1372.01	072.96
1419.16	011250	-1361.21	-1372.01	072.96
1419.13	011714	-1361.17	-1371.97	072.96
1419.12	011523	-1361.16	-1371.96	072.96
1419.12	011341	-1361.16	-1371.96	072.96
1419.12	011218	-1361.16	-1371.96	072.96
1419.12	011500	-1361.16	-1371.96	072.96
1419.12	011218	-1361.16	-1371.96	072.96
1419.07	011550	-1361.12	-1371.92	072.96
1419.06	011777	-1361.11	-1371.91	072.96
1419.02	011718	-1361.07	-1371.87	072.96
1419.02	011814	-1361.07	-1371.87	072.96
1419.00	012182	-1361.05	-1371.85	072.96
1418.97	012355	-1361.02	-1371.82	072.96
1418.94	012073	-1360.98	-1371.78	072.96
1418.92	012514	-1360.96	-1371.76	072.96
1418.88	011950	-1360.93	-1371.73	072.96
1418.88	012327	-1360.92	-1371.72	072.96
1418.88	012314	-1360.92	-1371.72	072.96
1418.87	012255	-1360.92	-1371.72	072.96
1418.84	012300	-1360.88	-1371.68	072.96
1418.83	012591	-1360.87	-1371.67	072.96
1418.79	012441	-1360.84	-1371.64	072.96
1418.78	012573	-1360.83	-1371.63	072.96
1418.78	012773	-1360.83	-1371.63	072.96
1418.76	012745	-1360.81	-1371.61	072.96
1418.73	012932	-1360.78	-1371.58	072.96
1418.73	012641	-1360.78	-1371.58	072.96
1418.69	012705	-1360.74	-1371.54	072.96
1418.69	012609	-1360.73	-1371.53	072.96
1418.67	012886	-1360.71	-1371.51	072.96
1418.64	012777	-1360.69	-1371.49	072.96
1418.64	012850	-1360.68	-1371.48	072.96
1418.64	012605	-1360.68	-1371.48	072.96
1418.64	012718	-1360.68	-1371.48	072.96
1418.62	012641	-1360.67	-1371.47	072.96
1418.59	012491	-1360.64	-1371.44	072.96
1418.59	012650	-1360.63	-1371.43	072.96
1418.54	012855	-1360.59	-1371.39	072.96
1418.54	012664	-1360.59	-1371.39	072.96
1418.53	012427	-1360.57	-1371.37	072.96
1418.49	012618	-1360.54	-1371.34	072.96
1418.45	012468	-1360.49	-1371.29	072.96
1418.44	012423	-1360.49	-1371.29	072.96
1418.42	012200	-1360.46	-1371.26	072.96
1418.40	012691	-1360.44	-1371.24	072.96
1418.40	012464	-1360.44	-1371.24	072.96
1418.40	012009	-1360.44	-1371.24	072.96
1418.39	012436	-1360.43	-1371.23	072.96
1418.35	012568	-1360.39	-1371.19	072.96
1418.35	012400	-1360.39	-1371.19	072.96
1418.31	011864	-1360.35	-1371.15	072.96
1418.30	012168	-1360.34	-1371.14	072.96
1418.30	011791	-1360.34	-1371.14	072.96
1418.26	011914	-1360.30	-1371.10	072.96
1418.25	011727	-1360.30	-1371.10	072.96
1418.22	011705	-1360.26	-1371.06	072.96
1418.20	011659	-1360.25	-1371.05	072.96
1418.19	011582	-1360.23	-1371.03	072.96
1418.16	011505	-1360.20	-1371.00	072.96
1418.15	011305	-1360.20	-1371.00	072.96
1418.15	011445	-1360.20	-1371.00	072.96
1418.15	011500	-1360.20	-1371.00	072.96
1418.15	011814	-1360.20	-1371.00	072.96
1418.11	011359	-1360.16	-1370.96	072.96
1418.09	011282	-1360.14	-1370.94	072.96
1418.07	010945	-1360.11	-1370.91	072.96
1418.06	010505	-1360.10	-1370.90	072.96
1418.02	010564	-1360.06	-1370.86	072.96
1417.94	009982	-1359.99	-1370.79	072.96
1417.90	010273	-1359.95	-1370.75	072.96
1417.88	009809	-1359.92	-1370.72	072.96
1417.89	010250	-1359.93	-1370.73	072.96
1417.90	009932	-1359.94	-1370.74	072.96
1417.88	009841	-1359.93	-1370.73	072.96
1417.86	009836	-1359.91	-1370.71	072.96
1417.84	009664	-1359.89	-1370.69	072.96
1417.82	009377	-1359.86	-1370.66	072.96
1417.81	009314	-1359.85	-1370.65	072.96
1417.77	009268	-1359.81	-1370.61	072.96
1417.77	009314	-1359.81	-1370.61	072.96
1417.77	009127	-1359.81	-1370.61	072.96
1417.75	009091	-1359.79	-1370.59	072.96
1417.71	008723	-1359.76	-1370.56	072.96
1417.67	008850	-1359.72	-1370.52	072.96
1417.67	008577	-1359.71	-1370.51	072.96
1417.63	008577	-1359.68	-1370.48	072.96
1417.62	008473	-1359.67	-1370.47	072.96
1417.62	008377	-1359.67	-1370.47	072.96
1417.62	008636	-1359.67	-1370.47	072.96
1417.62	008041	-1359.67	-1370.47	072.96
1417.61	008232	-1359.65	-1370.45	072.96
1417.57	008227	-1359.62	-1370.42	072.96
1417.57	008132	-1359.61	-1370.41	072.96
1417.53	008164	-1359.57	-1370.37	072.96
1417.53	008118	-1359.57	-1370.37	072.96
1417.50	007945	-1359.54	-1370.34	072.96
1417.48	007800	-1359.52	-1370.32	072.96
1417.44	007873	-1359.48	-1370.28	072.96
1417.43	007614	-1359.47	-1370.27	072.96
1417.41	007595	-1359.45	-1370.25	072.96
1417.38	007673	-1359.43	-1370.23	072.96
1417.38	007591	-1359.43	-1370.23	072.96
1417.38	007450	-1359.43	-1370.23	072.96
1417.36	007373	-1359.40	-1370.20	072.96
1417.33	007591	-1359.38	-1370.18	072.96
1417.33	007354	-1359.37	-1370.17	072.96
1417.29	007091	-1359.34	-1370.14	072.96
1417.28	007164	-1359.33	-1370.13	072.96
1417.28	007173	-1359.33	-1370.13	072.96
1417.24	007009	-1359.28	-1370.08	072.96
1417.24	006777	-1359.28	-1370.08	072.96
1417.21	006968	-1359.25	-1370.05	072.96
1417.19	006655	-1359.23	-1370.03	072.96
1417.18	007023	-1359.22	-1370.02	072.96
1417.15	007118	-1359.19	-1369.99	072.96
1417.14	006650	-1359.18	-1369.98	072.96
1417.14	006736	-1359.18	-1369.98	072.96
1417.14	006691	-1359.18	-1369.98	072.96
1417.14	006509	-1359.18	-1369.98	072.96
1417.10	006377	-1359.15	-1369.95	072.96
1417.09	006373	-1359.14	-1369.94	072.96
1417.05	006686	-1359.10	-1369.90	072.96
1417.04	006664	-1359.09	-1369.89	072.96
1417.03	006436	-1359.07	-1369.87	072.96
1416.99	006514	-1359.03	-1369.83	072.96
1416.95	006177	-1358.99	-1369.79	072.96
1416.94	006205	-1358.98	-1369.78	072.96
1416.91	006164	-1358.96	-1369.76	072.96
1416.90	006359	-1358.94	-1369.74	072.96
1416.90	006282	-1358.94	-1369.74	072.96
1416.90	006273	-1358.94	-1369.74	072.96
1416.87	006314	-1358.92	-1369.72	072.96
1416.85	005850	-1358.89	-1369.69	072.96
1416.84	005886	-1358.89	-1369.69	072.96
1416.80	006091	-1358.85	-1369.65	072.96
1416.80	005973	-1358.85	-1369.65	072.96
1416.80	006114	-1358.85	-1369.65	072.96
1416.76	006050	-1358.81	-1369.61	072.96
1416.75	006455	-1358.80	-1369.60	072.96
1416.72	006036	-1358.76	-1369.56	072.96
1416.70	006050	-1358.75	-1369.55	072.96
1416.69	005900	-1358.74	-1369.54	072.96
1416.66	006073	-1358.70	-1369.50	072.96
1416.66	006386	-1358.70	-1369.50	072.96
1416.66	005905	-1358.70	-1369.50	072.96
1416.66	006068	-1358.70	-1369.50	072.96
1416.64	006091	-1358.69	-1369.49	072.96
1416.61	005977	-1358.65	-1369.45	072.96
1416.58	006245	-1358.62	-1369.42	072.96
1416.56	005982	-1358.60	-1369.40	072.96
1416.56	005950	-1358.60	-1369.40	072.96
1416.52	006041	-1358.56	-1369.36	072.96
1416.51	005868	-1358.55	-1369.35	072.96
1416.47	006241	-1358.51	-1369.31	072.96
1416.46	006295	-1358.51	-1369.31	072.96
1416.43	006109	-1358.47	-1369.27	072.96
1416.41	006414	-1358.46	-1369.26	072.96
1416.41	006323	-1358.46	-1369.26	072.96
1416.41	006173	-1358.46	-1369.26	072.96
1416.41	006250	-1358.46	-1369.26	072.96
1416.39	006350	-1358.43	-1369.23	072.96
1416.37	006091	-1358.41	-1369.21	072.96
1416.34	006286	-1358.39	-1369.19	072.96
1416.32	006250	-1358.36	-1369.16	072.96
1416.32	006418	-1358.36	-1369.16	072.96
1416.31	006527	-1358.35	-1369.15	072.96
1416.27	006445	-1358.31	-1369.11	072.96
1416.26	006709	-1358.30	-1369.10	072.96
1416.23	006532	-1358.27	-1369.07	072.96
1416.22	006532	-1358.27	-1369.07	072.96
1416.19	006873	-1358.23	-1369.03	072.96
1416.17	006814	-1358.22	-1369.02	072.96
1416.17	006464	-1358.22	-1369.02	072.96
1416.17	007014	-1358.22	-1369.02	072.96
1416.17	006914	-1358.22	-1369.02	072.96
1416.15	007095	-1358.20	-1369.00	072.96
1416.13	007123	-1358.17	-1368.97	072.96
1416.10	006973	-1358.14	-1368.94	072.96
1416.08	007105	-1358.12	-1368.92	072.96
1416.08	007332	-1358.12	-1368.92	072.96
1416.05	007000	-1358.10	-1368.90	072.96
1416.03	007368	-1358.07	-1368.87	072.96
1416.01	007473	-1358.06	-1368.86	072.96
1415.98	007314	-1358.02	-1368.82	072.96
1415.98	007805	-1358.02	-1368.82	072.96
1415.98	007500	-1358.02	-1368.82	072.96
1415.96	007718	-1358.01	-1368.81	072.96
1415.93	007555	-1357.98	-1368.78	072.96
1415.93	008118	-1357.97	-1368.77	072.96
1415.88	007759	-1357.93	-1368.73	072.96
1415.88	007909	-1357.93	-1368.73	072.96
1415.87	008223	-1357.91	-1368.71	072.96
1415.84	008100	-1357.88	-1368.68	072.96
1415.83	008268	-1357.87	-1368.67	072.96
1415.79	008432	-1357.83	-1368.63	072.96
1415.76	009218	-1357.80	-1368.60	072.96
1415.74	008745	-1357.78	-1368.58	072.96
1415.73	009245	-1357.77	-1368.57	072.96
1415.71	009182	-1357.75	-1368.55	072.96
1415.70	009286	-1357.74	-1368.54	072.96
1415.69	008955	-1357.73	-1368.53	072.96
1415.69	009295	-1357.73	-1368.53	072.96
1415.69	009532	-1357.73	-1368.53	072.96
1415.65	009455	-1357.70	-1368.50	072.96
1415.64	009664	-1357.69	-1368.49	072.96
1415.62	009473	-1357.66	-1368.46	072.96
1415.59	010014	-1357.64	-1368.44	072.96
1415.59	009618	-1357.63	-1368.43	072.96
1415.55	009805	-1357.59	-1368.39	072.96
1415.55	010250	-1357.59	-1368.39	072.96
1415.51	010541	-1357.55	-1368.35	072.96
1415.50	010536	-1357.54	-1368.34	072.96
1415.49	010445	-1357.54	-1368.34	072.96
1415.49	010391	-1357.53	-1368.33	072.96
1415.45	011009	-1357.50	-1368.30	072.96
1415.45	010682	-1357.49	-1368.29	072.96
1415.44	010527	-1357.49	-1368.29	072.96
1415.40	010545	-1357.45	-1368.25	072.96
1415.39	011164	-1357.43	-1368.23	072.96
1415.35	011077	-1357.40	-1368.20	072.96
1415.35	010977	-1357.40	-1368.20	072.96
1415.34	011364	-1357.38	-1368.18	072.96
1415.31	011205	-1357.35	-1368.15	072.96
1415.30	011382	-1357.35	-1368.15	072.96
1415.29	011159	-1357.33	-1368.13	072.96
1415.26	011318	-1357.30	-1368.10	072.96
1415.25	011023	-1357.30	-1368.10	072.96
1415.24	011514	-1357.28	-1368.08	072.96
1415.23	011245	-1357.28	-1368.08	072.96
1415.24	011845	-1357.28	-1368.08	072.96
1415.21	011532	-1357.25	-1368.05	072.96
1415.20	011832	-1357.24	-1368.04	072.96
1415.16	011682	-1357.20	-1368.00	072.96
1415.15	011564	-1357.20	-1368.00	072.96
1415.11	011686	-1357.16	-1367.96	072.96
1415.11	011768	-1357.15	-1367.95	072.96
1415.06	011900	-1357.11	-1367.91	072.96
1415.04	011823	-1357.09	-1367.89	072.96
1415.01	011695	-1357.06	-1367.86	072.96
1415.01	011655	-1357.06	-1367.86	072.96
1415.01	011641	-1357.06	-1367.86	072.96
1415.00	011700	-1357.04	-1367.84	072.96
1414.97	011909	-1357.01	-1367.81	072.96
1414.97	011927	-1357.01	-1367.81	072.96
1414.94	011418	-1356.98	-1367.78	072.96
1414.92	011736	-1356.96	-1367.76	072.96
1414.92	011855	-1356.96	-1367.76	072.96
1414.88	011191	-1356.92	-1367.72	072.96
1414.87	011695	-1356.91	-1367.71	072.96
1414.85	011205	-1356.90	-1367.70	072.96
1414.82	011482	-1356.86	-1367.66	072.96
1414.80	011927	-1356.84	-1367.64	072.96
1414.77	011645	-1356.82	-1367.62	072.96
1414.77	011432	-1356.82	-1367.62	072.96
1414.76	011386	-1356.80	-1367.60	072.96
1414.74	011123	-1356.79	-1367.59	072.96
1414.73	011550	-1356.77	-1367.57	072.96
1414.72	011109	-1356.77	-1367.57	072.96
1414.72	011532	-1356.77	-1367.57	072.96
1414.71	011441	-1356.76	-1367.56	072.96
1414.68	011118	-1356.72	-1367.52	072.96
1414.66	011164	-1356.71	-1367.51	072.96
1414.63	011168	-1356.68	-1367.48	072.96
1414.62	010609	-1356.67	-1367.47	072.96
1414.58	011009	-1356.63	-1367.43	072.96
1414.57	011000	-1356.61	-1367.41	072.96
1414.53	010995	-1356.57	-1367.37	072.96
1414.53	010718	-1356.57	-1367.37	072.96
1414.53	010732	-1356.57	-1367.37	072.96
1414.51	010486	-1356.55	-1367.35	072.96
1414.49	010764	-1356.53	-1367.33	072.96
1414.48	010477	-1356.53	-1367.33	072.96
1414.48	010641	-1356.52	-1367.32	072.96
1414.45	010623	-1356.49	-1367.29	072.96
1414.43	009995	-1356.47	-1367.27	072.96
1414.42	010277	-1356.46	-1367.26	072.96
1414.39	009764	-1356.43	-1367.23	072.96
1414.39	010164	-1356.43	-1367.23	072.96
1414.38	009882	-1356.42	-1367.22	072.96
1414.34	009573	-1356.38	-1367.18	072.96
1414.33	009741	-1356.38	-1367.18	072.96
1414.30	009741	-1356.34	-1367.14	072.96
1414.29	009445	-1356.33	-1367.13	072.96
1414.29	009564	-1356.33	-1367.13	072.96
1414.29	009518	-1356.33	-1367.13	072.96
1414.29	009564	-1356.33	-1367.13	072.96
1414.28	009750	-1356.32	-1367.12	072.96
1414.24	009300	-1356.29	-1367.09	072.96
1414.21	008845	-1356.25	-1367.05	072.96
1414.19	009109	-1356.24	-1367.04	072.96
1414.19	008868	-1356.23	-1367.03	072.96
1414.11	008959	-1356.16	-1366.96	072.96
1414.01	008186	-1356.06	-1366.86	072.96
1413.95	007795	-1355.99	-1366.79	072.96
1413.95	007877	-1355.99	-1366.79	072.96
1413.95	007777	-1356.00	-1366.80	072.96
1413.97	007841	-1356.01	-1366.81	072.96
1413.97	007950	-1356.01	-1366.81	072.96
1413.95	007850	-1355.99	-1366.79	072.96
1413.91	007864	-1355.95	-1366.75	072.96
1413.88	007577	-1355.93	-1366.73	072.96
1413.85	007677	-1355.90	-1366.70	072.96
1413.85	007541	-1355.90	-1366.70	072.96
1413.85	007445	-1355.89	-1366.69	072.96
1413.82	007386	-1355.86	-1366.66	072.96
1413.81	007500	-1355.85	-1366.65	072.96
1413.78	007286	-1355.83	-1366.63	072.96
1413.75	006882	-1355.80	-1366.60	072.96
1413.72	007077	-1355.76	-1366.56	072.96
1413.71	006832	-1355.75	-1366.55	072.96
1413.71	007123	-1355.75	-1366.55	072.96
1413.71	006877	-1355.75	-1366.55	072.96
1413.70	006936	-1355.75	-1366.55	072.96
1413.69	006936	-1355.74	-1366.54	072.96
1413.66	006923	-1355.71	-1366.51	072.96
1413.66	006814	-1355.70	-1366.50	072.96
1413.62	006705	-1355.66	-1366.46	072.96
1413.61	006486	-1355.66	-1366.46	072.96
1413.60	006477	-1355.64	-1366.44	072.96
1413.57	006723	-1355.61	-1366.41	072.96
1413.54	006241	-1355.59	-1366.39	072.96
1413.52	006386	-1355.56	-1366.36	072.96
1413.48	006095	-1355.53	-1366.33	072.96
1413.47	006232	-1355.51	-1366.31	072.96
1413.47	006136	-1355.51	-1366.31	072.96
1413.46	006223	-1355.51	-1366.31	072.96
1413.42	006268	-1355.47	-1366.27	072.96
1413.42	006409	-1355.46	-1366.26	072.96
1413.42	006295	-1355.46	-1366.26	072.96
1413.39	006345	-1355.43	-1366.23	072.96
1413.37	005882	-1355.42	-1366.22	072.96
1413.35	005873	-1355.39	-1366.19	072.96
1413.32	005609	-1355.37	-1366.17	072.96
1413.32	005677	-1355.37	-1366.17	072.96
1413.29	005950	-1355.34	-1366.14	072.96
1413.27	005623	-1355.32	-1366.12	072.96
1413.25	005755	-1355.29	-1366.09	072.96
1413.23	005614	-1355.27	-1366.07	072.96
1413.23	005582	-1355.27	-1366.07	072.96
1413.23	005564	-1355.27	-1366.07	072.96
1413.23	005641	-1355.27	-1366.07	072.96
1413.22	005909	-1355.26	-1366.06	072.96
1413.20	005609	-1355.25	-1366.05	072.96
1413.18	005573	-1355.22	-1366.02	072.96
1413.16	005368	-1355.20	-1366.00	072.96
1413.13	005295	-1355.17	-1365.97	072.96
1413.13	005327	-1355.17	-1365.97	072.96
1413.09	005300	-1355.13	-1365.93	072.96
1413.06	005350	-1355.10	-1365.90	072.96
1413.03	005391	-1355.08	-1365.88	072.96
1413.00	005436	-1355.05	-1365.85	072.96
1412.98	005200	-1355.03	-1365.83	072.96
1412.98	005300	-1355.03	-1365.83	072.96
1412.98	005314	-1355.02	-1365.82	072.96
1412.96	004973	-1355.00	-1365.80	072.96
1412.94	005232	-1354.98	-1365.78	072.96
1412.94	005186	-1354.98	-1365.78	072.96
1412.89	005209	-1354.94	-1365.74	072.96
1412.88	005100	-1354.93	-1365.73	072.96
1412.86	005250	-1354.90	-1365.70	072.96
1412.84	004977	-1354.89	-1365.69	072.96
1412.84	004995	-1354.88	-1365.68	072.96
1412.81	004968	-1354.86	-1365.66	072.96
1412.79	004764	-1354.83	-1365.63	072.96
1412.76	004895	-1354.81	-1365.61	072.96
1412.74	004777	-1354.79	-1365.59	072.96
1412.74	004877	-1354.79	-1365.59	072.96
1412.71	004995	-1354.76	-1365.56	072.96
1412.70	005077	-1354.74	-1365.54	072.96
1412.69	004723	-1354.74	-1365.54	072.96
1412.69	004891	-1354.74	-1365.54	072.96
1412.68	004718	-1354.72	-1365.52	072.96
1412.65	004723	-1354.69	-1365.49	072.96
1412.64	004841	-1354.68	-1365.48	072.96
1412.61	004859	-1354.65	-1365.45	072.96
1412.60	004932	-1354.64	-1365.44	072.96
1412.56	004618	-1354.61	-1365.41	072.96
1412.55	004609	-1354.59	-1365.39	072.96
1412.52	004427	-1354.56	-1365.36	072.96
1412.50	004600	-1354.55	-1365.35	072.96
1412.50	004623	-1354.55	-1365.35	072.96
1412.50	004423	-1354.55	-1365.35	072.96
1412.50	004782	-1354.54	-1365.34	072.96
1412.48	004686	-1354.53	-1365.33	072.96
1412.45	004700	-1354.50	-1365.30	072.96
1412.45	004468	-1354.50	-1365.30	072.96
1412.42	004668	-1354.46	-1365.26	072.96
1412.40	004741	-1354.45	-1365.25	072.96
1412.39	004523	-1354.43	-1365.23	072.96
1412.36	004655	-1354.40	-1365.20	072.96
1412.36	004595	-1354.40	-1365.20	072.96
1412.33	004455	-1354.37	-1365.17	072.96
1412.31	004400	-1354.35	-1365.15	072.96
1412.29	004314	-1354.34	-1365.14	072.96
1412.27	004464	-1354.31	-1365.11	072.96
1412.26	004405	-1354.30	-1365.10	072.96
1412.26	004418	-1354.30	-1365.10	072.96
1412.26	004436	-1354.30	-1365.10	072.96
1412.25	004318	-1354.30	-1365.10	072.96
1412.21	004273	-1354.26	-1365.06	072.96
1412.20	004373	-1354.24	-1365.04	072.96
1412.17	004464	-1354.21	-1365.01	072.96
1412.16	004132	-1354.21	-1365.01	072.96
1412.14	004305	-1354.19	-1364.99	072.96
1412.08	004050	-1354.12	-1364.92	072.96
1412.04	004227	-1354.08	-1364.88	072.96
1412.02	004114	-1354.06	-1364.86	072.96
1412.02	004150	-1354.06	-1364.86	072.96
1412.02	004223	-1354.06	-1364.86	072.96
1412.02	004295	-1354.06	-1364.86	072.96
1412.01	004241	-1354.05	-1364.85	072.96
1411.98	004041	-1354.02	-1364.82	072.96
1411.96	004232	-1354.00	-1364.80	072.96
1411.92	003977	-1353.97	-1364.77	072.96
1411.92	004241	-1353.96	-1364.76	072.96
1411.88	004305	-1353.93	-1364.73	072.96
1411.87	004118	-1353.92	-1364.72	072.96
1411.87	004273	-1353.91	-1364.71	072.96
1411.83	004059	-1353.87	-1364.67	072.96
1411.81	004155	-1353.86	-1364.66	072.96
1411.78	004045	-1353.82	-1364.62	072.96
1411.78	004109	-1353.82	-1364.62	072.96
1411.77	004323	-1353.82	-1364.62	072.96
1411.73	004223	-1353.78	-1364.58	072.96
1411.73	004232	-1353.77	-1364.57	072.96
1411.73	003945	-1353.77	-1364.57	072.96
1411.73	004118	-1353.77	-1364.57	072.96
1411.69	004182	-1353.73	-1364.53	072.96
1411.67	003936	-1353.72	-1364.52	072.96
1411.63	004136	-1353.68	-1364.48	072.96
1411.63	003986	-1353.68	-1364.48	072.96
1411.63	004059	-1353.68	-1364.48	072.96
1411.59	003964	-1353.63	-1364.43	072.96
1411.58	004295	-1353.62	-1364.42	072.96
1411.55	003891	-1353.59	-1364.39	072.96
1411.53	004041	-1353.58	-1364.38	072.96
1411.49	003959	-1353.53	-1364.33	072.96
1411.49	003982	-1353.53	-1364.33	072.96
1411.49	004195	-1353.53	-1364.33	072.96
1411.49	003795	-1353.53	-1364.33	072.96
1411.46	003895	-1353.51	-1364.31	072.96
1411.44	003841	-1353.48	-1364.28	072.96
1411.41	003909	-1353.45	-1364.25	072.96
1411.39	-000008	-1353.43	-1364.23	072.96
1411.39	004150	-1353.43	-1364.23	072.96
1411.38	004100	-1353.43	-1364.23	072.96
1411.34	004177	-1353.39	-1364.19	072.96
1411.34	004127	-1353.39	-1364.19	072.96
1411.30	003927	-1353.35	-1364.15	072.96
1411.29	003773	-1353.34	-1364.14	072.96
1411.25	003673	-1353.30	-1364.10	072.96
1411.24	003886	-1353.29	-1364.09	072.96
1411.25	003823	-1353.29	-1364.09	072.96
1411.26	003782	-1353.30	-1364.10	072.96
1411.25	003691	-1353.30	-1364.10	072.96
1411.23	003932	-1353.28	-1364.08	072.96
1411.20	004100	-1353.24	-1364.04	072.96
1411.15	003873	-1353.20	-1364.00	072.96
1411.15	003936	-1353.19	-1363.99	072.96
1411.14	004205	-1353.18	-1363.98	072.96
1411.10	003845	-1353.14	-1363.94	072.96
1411.07	003755	-1353.12	-1363.92	072.96
1411.05	003682	-1353.10	-1363.90	072.96
1411.05	003759	-1353.10	-1363.90	072.96
1411.05	003623	-1353.09	-1363.89	072.96
1411.01	003595	-1353.06	-1363.86	072.96
1411.01	003668	-1353.05	-1363.85	072.96
1411.00	003809	-1353.05	-1363.85	072.96
1410.99	003664	-1353.04	-1363.84	072.96
1410.96	003609	-1353.00	-1363.80	072.96
1410.94	003991	-1352.99	-1363.79	072.96
1410.91	003655	-1352.95	-1363.75	072.96
1410.91	003782	-1352.95	-1363.75	072.96
1410.90	003632	-1352.95	-1363.75	072.96
1410.86	003768	-1352.90	-1363.70	072.96
1410.83	003732	-1352.87	-1363.67	072.96
1410.81	003582	-1352.85	-1363.65	072.96
1410.79	003673	-1352.84	-1363.64	072.96
1410.77	003850	-1352.81	-1363.61	072.96
1410.76	003668	-1352.81	-1363.61	072.96
1410.76	003745	-1352.81	-1363.61	072.96
1410.76	003714	-1352.81	-1363.61	072.96
1410.75	003768	-1352.80	-1363.60	072.96
1410.71	003950	-1352.76	-1363.56	072.96
1410.69	003650	-1352.73	-1363.53	072.96
1410.67	003777	-1352.71	-1363.51	072.96
1410.67	003836	-1352.71	-1363.51	072.96
1410.64	003691	-1352.68	-1363.48	072.96
1410.62	003536	-1352.66	-1363.46	072.96
1410.59	003764	-1352.63	-1363.43	072.96
1410.57	003545	-1352.61	-1363.41	072.96
1410.57	003714	-1352.61	-1363.41	072.96
1410.55	003714	-1352.59	-1363.39	072.96
1410.52	003691	-1352.57	-1363.37	072.96
1410.52	003705	-1352.56	-1363.36	072.96
1410.52	003855	-1352.56	-1363.36	072.96
1410.51	003832	-1352.55	-1363.35	072.96
1410.47	003627	-1352.52	-1363.32	072.96
1410.46	003695	-1352.50	-1363.30	072.96
1410.42	003918	-1352.47	-1363.27	072.96
1410.42	003955	-1352.47	-1363.27	072.96
1410.42	003850	-1352.47	-1363.27	072.96
1410.39	003536	-1352.43	-1363.23	072.96
1410.37	003764	-1352.42	-1363.22	072.96
1410.34	003659	-1352.38	-1363.18	072.96
1410.33	003773	-1352.37	-1363.17	072.96
1410.33	003705	-1352.37	-1363.17	072.96
1410.29	003755	-1352.33	-1363.13	072.96
1410.30	003691	-1352.35	-1363.15	072.96
1410.32	003573	-1352.36	-1363.16	072.96
1410.30	003732	-1352.34	-1363.14	072.96
1410.28	003532	-1352.32	-1363.12	072.96
1410.26	003668	-1352.30	-1363.10	072.96
1410.23	003459	-1352.27	-1363.07	072.96
1410.22	003845	-1352.27	-1363.07	072.96
1410.16	003623	-1352.21	-1363.01	072.96
1410.10	003641	-1352.14	-1362.94	072.96
1410.04	003518	-1352.08	-1362.88	072.96
1410.02	003645	-1352.06	-1362.86	072.96
1410.03	003614	-1352.08	-1362.88	072.96
1410.04	003586	-1352.08	-1362.88	072.96
1410.04	003495	-1352.08	-1362.88	072.96
1410.00	003809	-1352.04	-1362.84	072.96
1409.98	003545	-1352.02	-1362.82	072.96
1409.94	003595	-1351.99	-1362.79	072.96
1409.94	003636	-1351.98	-1362.78	072.96
1409.91	003473	-1351.95	-1362.75	072.96
1409.89	003614	-1351.94	-1362.74	072.96
1409.89	003741	-1351.94	-1362.74	072.96
1409.87	003686	-1351.92	-1362.72	072.96
1409.84	003805	-1351.89	-1362.69	072.96
1409.82	003586	-1351.87	-1362.67	072.96
1409.80	003641	-1351.84	-1362.64	072.96
1409.80	003600	-1351.84	-1362.64	072.96
1409.77	003732	-1351.81	-1362.61	072.96
1409.76	003705	-1351.80	-1362.60	072.96
1409.75	003564	-1351.79	-1362.59	072.96
1409.75	003545	-1351.79	-1362.59	072.96
1409.75	003605	-1351.79	-1362.59	072.96
1409.71	003745	-1351.75	-1362.55	072.96
1409.70	003441	-1351.74	-1362.54	072.96
1409.67	003623	-1351.71	-1362.51	072.96
1409.65	003505	-1351.69	-1362.49	072.96
1409.63	003486	-1351.67	-1362.47	072.96
1409.60	003423	-1351.65	-1362.45	072.96
1409.56	003677	-1351.60	-1362.40	072.96
1409.55	003709	-1351.60	-1362.40	072.96
1409.54	003609	-1351.58	-1362.38	072.96
1409.51	003927	-1351.55	-1362.35	072.96
1409.51	003605	-1351.55	-1362.35	072.96
1409.51	003727	-1351.55	-1362.35	072.96
1409.50	003764	-1351.55	-1362.35	072.96
1409.47	003573	-1351.51	-1362.31	072.96
1409.46	003673	-1351.50	-1362.30	072.96
1409.42	003518	-1351.47	-1362.27	072.96
1409.41	003859	-1351.45	-1362.25	072.96
1409.41	003632	-1351.45	-1362.25	072.96
1409.38	003827	-1351.43	-1362.23	072.96
1409.36	003655	-1351.40	-1362.20	072.96
1409.34	003877	-1351.38	-1362.18	072.96
1409.31	003764	-1351.36	-1362.16	072.96
1409.31	003532	-1351.36	-1362.16	072.96
1409.27	003614	-1351.32	-1362.12	072.96
1409.26	003623	-1351.31	-1362.11	072.96
1409.26	003414	-1351.31	-1362.11	072.96
1409.26	003768	-1351.31	-1362.11	072.96
1409.26	003691	-1351.31	-1362.11	072.96
1409.24	003541	-1351.29	-1362.09	072.96
1409.21	003477	-1351.26	-1362.06	072.96
1409.18	003591	-1351.22	-1362.02	072.96
1409.17	003945	-1351.21	-1362.01	072.96
1409.15	003782	-1351.20	-1362.00	072.96
1409.12	003577	-1351.16	-1361.96	072.96
1409.10	003509	-1351.14	-1361.94	072.96
1409.07	003759	-1351.11	-1361.91	072.96
1409.07	003436	-1351.11	-1361.91	072.96
1409.05	003850	-1351.10	-1361.90	072.96
1409.02	003695	-1351.07	-1361.87	072.96
1409.02	003655	-1351.07	-1361.87	072.96
1409.02	003564	-1351.07	-1361.87	072.96
1408.99	003591	-1351.03	-1361.83	072.96
1408.97	003700	-1351.02	-1361.82	072.96
1408.95	003627	-1351.00	-1361.80	072.96
1408.93	003605	-1350.97	-1361.77	072.96
1408.93	003614	-1350.97	-1361.77	072.96
1408.92	003800	-1350.96	-1361.76	072.96
1408.88	003623	-1350.93	-1361.73	072.96
1408.86	003673	-1350.91	-1361.71	072.96
1408.83	003741	-1350.87	-1361.67	072.96
1408.83	003741	-1350.87	-1361.67	072.96
1408.80	003486	-1350.85	-1361.65	072.96
1408.78	003441	-1350.82	-1361.62	072.96
1408.78	003564	-1350.82	-1361.62	072.96
1408.78	003736	-1350.82	-1361.62	072.96
1408.78	003673	-1350.82	-1361.62	072.96
1408.74	003686	-1350.79	-1361.59	072.96
1408.73	003773	-1350.78	-1361.58	072.96
1408.70	003591	-1350.74	-1361.54	072.96
1408.68	003436	-1350.73	-1361.53	072.96
1408.68	003500	-1350.72	-1361.52	072.96
1408.64	003891	-1350.68	-1361.48	072.96
1408.63	003632	-1350.67	-1361.47	072.96
1408.59	003655	-1350.63	-1361.43	072.96
1408.59	003573	-1350.63	-1361.43	072.96
1408.58	003509	-1350.62	-1361.42	072.96
1408.55	003555	-1350.59	-1361.39	072.96
1408.54	003477	-1350.58	-1361.38	072.96
1408.54	003773	-1350.58	-1361.38	072.96
1408.52	003632	-1350.57	-1361.37	072.96
1408.49	003750	-1350.54	-1361.34	072.96
1408.47	003995	-1350.52	-1361.32	072.96
1408.44	003836	-1350.49	-1361.29	072.96
1408.44	003700	-1350.49	-1361.29	072.96
1408.44	003618	-1350.49	-1361.29	072.96
1408.40	003514	-1350.44	-1361.24	072.96
1408.39	003664	-1350.44	-1361.24	072.96
1408.37	003795	-1350.41	-1361.21	072.96
1408.35	003455	-1350.39	-1361.19	072.96
1408.35	003573	-1350.39	-1361.19	072.96
1408.34	003545	-1350.38	-1361.18	072.96
1408.34	003418	-1350.38	-1361.18	072.96
1408.33	003718	-1350.37	-1361.17	072.96
1408.30	003750	-1350.35	-1361.15	072.96
1408.29	003632	-1350.34	-1361.14	072.96
1408.27	003586	-1350.31	-1361.11	072.96
1408.25	003545	-1350.29	-1361.09	072.96
1408.25	003750	-1350.29	-1361.09	072.96
1408.22	003714	-1350.26	-1361.06	072.96
1408.20	003759	-1350.24	-1361.04	072.96
1408.16	003764	-1350.21	-1361.01	072.96
1408.15	003714	-1350.20	-1361.00	072.96
1408.13	003914	-1350.17	-1360.97	072.96
1408.10	003605	-1350.15	-1360.95	072.96
1408.10	003686	-1350.15	-1360.95	072.96
1408.10	003768	-1350.15	-1360.95	072.96
1408.07	003605	-1350.11	-1360.91	072.96
1408.06	003695	-1350.10	-1360.90	072.96
1408.02	003632	-1350.06	-1360.86	072.96
1408.01	003768	-1350.05	-1360.85	072.96
1408.00	003582	-1350.04	-1360.84	072.96
1407.97	003764	-1350.01	-1360.81	072.96
1407.96	003714	-1350.00	-1360.80	072.96
1407.93	003814	-1349.98	-1360.78	072.96
1407.91	003691	-1349.95	-1360.75	072.96
1407.86	003536	-1349.91	-1360.71	072.96
1407.86	003441	-1349.91	-1360.71	072.96
1407.86	003514	-1349.91	-1360.71	072.96
1407.85	003636	-1349.90	-1360.70	072.96
1407.85	003573	-1349.90	-1360.70	072.96
1407.84	003586	-1349.88	-1360.68	072.96
1407.82	003641	-1349.86	-1360.66	072.96
1407.80	003564	-1349.85	-1360.65	072.96
1407.77	003709	-1349.81	-1360.61	072.96
1407.76	003795	-1349.81	-1360.61	072.96
1407.75	003918	-1349.79	-1360.59	072.96
1407.72	003605	-1349.76	-1360.56	072.96
1407.70	003655	-1349.74	-1360.54	072.96
1407.67	003700	-1349.71	-1360.51	072.96
1407.64	003495	-1349.68	-1360.48	072.96
1407.62	003677	-1349.67	-1360.47	072.96
1407.62	003618	-1349.66	-1360.46	072.96
1407.59	003609	-1349.63	-1360.43	072.96
1407.57	003723	-1349.62	-1360.42	072.96
1407.57	003886	-1349.62	-1360.42	072.96
1407.57	003850	-1349.61	-1360.41	072.96
1407.54	003750	-1349.58	-1360.38	072.96
1407.52	003773	-1349.57	-1360.37	072.96
1407.51	003664	-1349.55	-1360.35	072.96
1407.48	003686	-1349.53	-1360.33	072.96
1407.48	003827	-1349.52	-1360.32	072.96
1407.46	003600	-1349.51	-1360.31	072.96
1407.43	003623	-1349.48	-1360.28	072.96
1407.42	003682	-1349.47	-1360.27	072.96
1407.39	003695	-1349.43	-1360.23	072.96
1407.38	003759	-1349.42	-1360.22	072.96
1407.38	003668	-1349.42	-1360.22	072.96
1407.38	003682	-1349.42	-1360.22	072.96
1407.38	003695	-1349.42	-1360.22	072.96
1407.37	003555	-1349.42	-1360.22	072.96
1407.34	003795	-1349.39	-1360.19	072.96
1407.31	003809	-1349.36	-1360.16	072.96
1407.28	003591	-1349.33	-1360.13	072.96
1407.28	003645	-1349.33	-1360.13	072.96
1407.25	003764	-1349.30	-1360.10	072.96
1407.23	003659	-1349.27	-1360.07	072.96
1407.19	003841	-1349.23	-1360.03	072.96
1407.19	003832	-1349.23	-1360.03	072.96
1407.15	003686	-1349.19	-1359.99	072.96
1407.14	003595	-1349.18	-1359.98	072.96
1407.14	003650	-1349.18	-1359.98	072.96
1407.14	003773	-1349.18	-1359.98	072.96
1407.10	003791	-1349.15	-1359.95	072.96
1407.09	003750	-1349.13	-1359.93	072.96
1407.06	003641	-1349.11	-1359.91	072.96
1407.04	003491	-1349.09	-1359.89	072.96
1407.04	003855	-1349.08	-1359.88	072.96
1407.00	003682	-1349.05	-1359.85	072.96
1406.99	003641	-1349.04	-1359.84	072.96
1406.99	003705	-1349.04	-1359.84	072.96
1406.96	003623	-1349.00	-1359.80	072.96
1406.94	003582	-1348.99	-1359.79	072.96
1406.90	003618	-1348.95	-1359.75	072.96
1406.90	003559	-1348.94	-1359.74	072.96
1406.90	003618	-1348.94	-1359.74	072.96
1406.88	003600	-1348.93	-1359.73	072.96
1406.89	003564	-1348.93	-1359.73	072.96
1406.85	003809	-1348.90	-1359.70	072.96
1406.85	003782	-1348.89	-1359.69	072.96
1406.80	003714	-1348.85	-1359.65	072.96
1406.80	003709	-1348.84	-1359.64	072.96
1406.80	003768	-1348.84	-1359.64	072.96
1406.76	003668	-1348.80	-1359.60	072.96
1406.75	003791	-1348.79	-1359.59	072.96
1406.70	003655	-1348.75	-1359.55	072.96
1406.69	003709	-1348.74	-1359.54	072.96
1406.66	003786	-1348.70	-1359.50	072.96
1406.65	003764	-1348.70	-1359.50	072.96
1406.65	003791	-1348.70	-1359.50	072.96
1406.63	003750	-1348.68	-1359.48	072.96
1406.63	003759	-1348.67	-1359.47	072.96
1406.61	003441	-1348.65	-1359.45	072.96
1406.59	003845	-1348.63	-1359.43	072.96
1406.56	003605	-1348.60	-1359.40	072.96
1406.55	003664	-1348.59	-1359.39	072.96
1406.52	003600	-1348.56	-1359.36	072.96
1406.51	003636	-1348.55	-1359.35	072.96
1406.51	003691	-1348.55	-1359.35	072.96
1406.46	003827	-1348.51	-1359.31	072.96
1406.46	003732	-1348.51	-1359.31	072.96
1406.44	003618	-1348.49	-1359.29	072.96
1406.42	003636	-1348.46	-1359.26	072.96
1406.41	003914	-1348.46	-1359.26	072.96
1406.41	003632	-1348.46	-1359.26	072.96
1406.41	003755	-1348.46	-1359.26	072.96
1406.41	003850	-1348.45	-1359.25	072.96
1406.37	003855	-1348.42	-1359.22	072.96
1406.36	003750	-1348.40	-1359.20	072.96
1406.32	003559	-1348.36	-1359.16	072.96
1406.32	003877	-1348.36	-1359.16	072.96
1406.27	003750	-1348.31	-1359.11	072.96
1406.16	003577	-1348.20	-1359.00	072.96
1406.09	003741	-1348.13	-1358.93	072.96
1406.07	003577	-1348.12	-1358.92	072.96
1406.07	003745	-1348.12	-1358.92	072.96
1406.10	003650	-1348.14	-1358.94	072.96
1406.08	003900	-1348.12	-1358.92	072.96
1406.07	003864	-1348.12	-1358.92	072.96
1406.05	003750	-1348.09	-1358.89	072.96
1406.03	003877	-1348.07	-1358.87	072.96
1406.01	003845	-1348.05	-1358.85	072.96
1405.98	003877	-1348.03	-1358.83	072.96
1405.98	003895	-1348.02	-1358.82	072.96
1405.98	003595	-1348.02	-1358.82	072.96
1405.96	003773	-1348.00	-1358.80	072.96
1405.92	003800	-1347.97	-1358.77	072.96
1405.89	003727	-1347.93	-1358.73	072.96
1405.88	003691	-1347.92	-1358.72	072.96
1405.84	003836	-1347.88	-1358.68	072.96
1405.83	003645	-1347.88	-1358.68	072.96
1405.83	003645	-1347.88	-1358.68	072.96
1405.83	003564	-1347.88	-1358.68	072.96
1405.83	003668	-1347.87	-1358.67	072.96
1405.80	003618	-1347.84	-1358.64	072.96
1405.78	003709	-1347.82	-1358.62	072.96
1405.74	003959	-1347.78	-1358.58	072.96
1405.73	003836	-1347.78	-1358.58	072.96
1405.69	003718	-1347.74	-1358.54	072.96
1405.69	003832	-1347.73	-1358.53	072.96
1405.67	003923	-1347.72	-1358.52	072.96
1405.64	003573	-1347.68	-1358.48	072.96
1405.63	003732	-1347.68	-1358.48	072.96
1405.60	003545	-1347.64	-1358.44	072.96
1405.59	003795	-1347.64	-1358.44	072.96
1405.59	003755	-1347.64	-1358.44	072.96
1405.59	003705	-1347.63	-1358.43	072.96
1405.55	003800	-1347.59	-1358.39	072.96
1405.54	003723	-1347.59	-1358.39	072.96
1405.54	004000	-1347.59	-1358.39	072.96
1405.52	003718	-1347.56	-1358.36	072.96
1405.50	003886	-1347.54	-1358.34	072.96
1405.50	003795	-1347.54	-1358.34	072.96
1405.46	003723	-1347.51	-1358.31	072.96
1405.45	003773	-1347.49	-1358.29	072.96
1405.42	003750	-1347.47	-1358.27	072.96
1405.40	003864	-1347.44	-1358.24	072.96
1405.39	003855	-1347.44	-1358.24	072.96
1405.35	003791	-1347.40	-1358.20	072.96
1405.35	003805	-1347.40	-1358.20	072.96
1405.35	003945	-1347.39	-1358.19	072.96
1405.35	003664	-1347.39	-1358.19	072.96
1405.35	003673	-1347.39	-1358.19	072.96
1405.31	003886	-1347.35	-1358.15	072.96
1405.30	003927	-1347.34	-1358.14	072.96
1405.26	003882	-1347.30	-1358.10	072.96
1405.25	004027	-1347.30	-1358.10	072.96
1405.24	003795	-1347.28	-1358.08	072.96
1405.21	003868	-1347.25	-1358.05	072.96
1405.17	003759	-1347.21	-1358.01	072.96
1405.16	004082	-1347.20	-1358.00	072.96
1405.15	003709	-1347.19	-1357.99	072.96
1405.12	003800	-1347.17	-1357.97	072.96
1405.11	003982	-1347.16	-1357.96	072.96
1405.11	003732	-1347.15	-1357.95	072.96
1405.10	003991	-1347.15	-1357.95	072.96
1405.07	003741	-1347.11	-1357.91	072.96
1405.06	003964	-1347.10	-1357.90	072.96
1405.02	003950	-1347.06	-1357.86	072.96
1405.01	003873	-1347.06	-1357.86	072.96
1405.00	003964	-1347.04	-1357.84	072.96
1404.98	003986	-1347.02	-1357.82	072.96
1404.96	003982	-1347.00	-1357.80	072.96
1404.92	003795	-1346.96	-1357.76	072.96
1404.92	003945	-1346.96	-1357.76	072.96
1404.90	003841	-1346.94	-1357.74	072.96
1404.87	004155	-1346.91	-1357.71	072.96
1404.87	003932	-1346.91	-1357.71	072.96
1404.87	003918	-1346.91	-1357.71	072.96
1404.87	004055	-1346.91	-1357.71	072.96
1404.85	003936	-1346.90	-1357.70	072.96
1404.82	003786	-1346.87	-1357.67	072.96
1404.80	003850	-1346.85	-1357.65	072.96
1404.77	003959	-1346.81	-1357.61	072.96
1404.77	003855	-1346.81	-1357.61	072.96
1404.74	004000	-1346.78	-1357.58	072.96
1404.72	003859	-1346.76	-1357.56	072.96
1404.68	003977	-1346.72	-1357.52	072.96
1404.67	004173	-1346.72	-1357.52	072.96
1404.65	003905	-1346.69	-1357.49	072.96
1404.63	003941	-1346.67	-1357.47	072.96
1404.63	003809	-1346.67	-1357.47	072.96
1404.63	003900	-1346.67	-1357.47	072.96
1404.61	003945	-1346.65	-1357.45	072.96
1404.58	003877	-1346.62	-1357.42	072.96
1404.55	003941	-1346.59	-1357.39	072.96
1404.53	003886	-1346.57	-1357.37	072.96
1404.53	004036	-1346.57	-1357.37	072.96
1404.51	003914	-1346.55	-1357.35	072.96
1404.48	003918	-1346.53	-1357.33	072.96
1404.48	003818	-1346.52	-1357.32	072.96
1404.47	004009	-1346.51	-1357.31	072.96
1404.43	004050	-1346.48	-1357.28	072.96
1404.43	003877	-1346.48	-1357.28	072.96
1404.40	004041	-1346.44	-1357.24	072.96
1404.38	003895	-1346.43	-1357.23	072.96
1404.38	003977	-1346.43	-1357.23	072.96
1404.38	003786	-1346.43	-1357.23	072.96
1404.38	004082	-1346.43	-1357.23	072.96
1404.36	003818	-1346.41	-1357.21	072.96
1404.34	004041	-1346.38	-1357.18	072.96
1404.31	003773	-1346.36	-1357.16	072.96
1404.29	003855	-1346.33	-1357.13	072.96
1404.28	003768	-1346.32	-1357.12	072.96
1404.24	004082	-1346.29	-1357.09	072.96
1404.20	003759	-1346.24	-1357.04	072.96
1404.19	003964	-1346.23	-1357.03	072.96
1404.15	003968	-1346.19	-1356.99	072.96
1404.14	004091	-1346.19	-1356.99	072.96
1404.14	003936	-1346.19	-1356.99	072.96
1404.14	003777	-1346.19	-1356.99	072.96
1404.12	003827	-1346.16	-1356.96	072.96
1404.09	003795	-1346.14	-1356.94	072.96
1404.09	004086	-1346.14	-1356.94	072.96
1404.05	003909	-1346.10	-1356.90	072.96
1404.05	003977	-1346.09	-1356.89	072.96
1404.05	003886	-1346.09	-1356.89	072.96
1404.02	003864	-1346.06	-1356.86	072.96
1404.00	003814	-1346.04	-1356.84	072.96
1403.95	003845	-1346.00	-1356.80	072.96
1403.95	003995	-1345.99	-1356.79	072.96
1403.93	004014	-1345.98	-1356.78	072.96
1403.90	003786	-1345.95	-1356.75	072.96
1403.90	003959	-1345.94	-1356.74	072.96
1403.90	003777	-1345.94	-1356.74	072.96
1403.90	003918	-1345.94	-1356.74	072.96
1403.88	004155	-1345.92	-1356.72	072.96
1403.85	003877	-1345.90	-1356.70	072.96
1403.82	003882	-1345.87	-1356.67	072.96
1403.80	003859	-1345.85	-1356.65	072.96
1403.80	003941	-1345.85	-1356.65	072.96
1403.76	004059	-1345.80	-1356.60	072.96
1403.73	004173	-1345.78	-1356.58	072.96
1403.71	003841	-1345.75	-1356.55	072.96
1403.68	003845	-1345.73	-1356.53	072.96
1403.66	003977	-1345.71	-1356.51	072.96
1403.66	003859	-1345.70	-1356.50	072.96
1403.66	004118	-1345.70	-1356.50	072.96
1403.66	004000	-1345.70	-1356.50	072.96
1403.63	004027	-1345.68	-1356.48	072.96
1403.61	003768	-1345.65	-1356.45	072.96
1403.60	004123	-1345.64	-1356.44	072.96
1403.56	003905	-1345.61	-1356.41	072.96
1403.56	003941	-1345.61	-1356.41	072.96
1403.54	003995	-1345.59	-1356.39	072.96
1403.51	003786	-1345.56	-1356.36	072.96
1403.51	003918	-1345.56	-1356.36	072.96
1403.48	004268	-1345.52	-1356.32	072.96
1403.47	004000	-1345.51	-1356.31	072.96
1403.45	004164	-1345.49	-1356.29	072.96
1403.42	003768	-1345.46	-1356.26	072.96
1403.41	003777	-1345.46	-1356.26	072.96
1403.41	004105	-1345.46	-1356.26	072.96
1403.42	004095	-1345.46	-1356.26	072.96
1403.41	004095	-1345.46	-1356.26	072.96
1403.37	004186	-1345.42	-1356.22	072.96
1403.36	004018	-1345.40	-1356.20	072.96
1403.32	004050	-1345.36	-1356.16	072.96
1403.32	003732	-1345.36	-1356.16	072.96
1403.28	003982	-1345.33	-1356.13	072.96
1403.27	003936	-1345.31	-1356.11	072.96
1403.23	004018	-1345.27	-1356.07	072.96
1403.22	003959	-1345.27	-1356.07	072.96
1403.20	003995	-1345.24	-1356.04	072.96
1403.18	003982	-1345.22	-1356.02	072.96
1403.18	003959	-1345.22	-1356.02	072.96
1403.18	003927	-1345.22	-1356.02	072.96
1403.17	003927	-1345.21	-1356.01	072.96
1403.13	004045	-1345.17	-1355.97	072.96
1403.13	004018	-1345.17	-1355.97	072.96
1403.09	003991	-1345.13	-1355.93	072.96
1403.08	003900	-1345.12	-1355.92	072.96
1403.08	004005	-1345.12	-1355.92	072.96
1403.05	004100	-1345.09	-1355.89	072.96
1403.03	003918	-1345.07	-1355.87	072.96
1402.98	004150	-1345.03	-1355.83	072.96
1402.98	004109	-1345.02	-1355.82	072.96
1402.94	004045	-1344.98	-1355.78	072.96
1402.93	004036	-1344.98	-1355.78	072.96
1402.93	004041	-1344.98	-1355.78	072.96
1402.93	004105	-1344.98	-1355.78	072.96
1402.93	004059	-1344.98	-1355.78	072.96
1402.90	003945	-1344.94	-1355.74	072.96
1402.89	003895	-1344.93	-1355.73	072.96
1402.86	-000008	-1344.90	-1355.70	072.96
1402.84	003832	-1344.88	-1355.68	072.96
1402.84	004068	-1344.88	-1355.68	072.96
1402.82	003886	-1344.87	-1355.67	072.96
1402.79	003905	-1344.83	-1355.63	072.96
1402.75	003909	-1344.79	-1355.59	072.96
1402.74	004100	-1344.79	-1355.59	072.96
1402.74	004145	-1344.78	-1355.58	072.96
1402.71	004045	-1344.76	-1355.56	072.96
1402.69	003905	-1344.74	-1355.54	072.96
1402.69	004032	-1344.74	-1355.54	072.96
1402.69	003859	-1344.74	-1355.54	072.96
1402.66	003941	-1344.71	-1355.51	072.96
1402.64	003995	-1344.69	-1355.49	072.96
1402.61	004141	-1344.65	-1355.45	072.96
1402.60	004114	-1344.64	-1355.44	072.96
1402.60	004050	-1344.64	-1355.44	072.96
1402.59	003864	-1344.63	-1355.43	072.96
1402.55	003695	-1344.59	-1355.39	072.96
1402.54	003968	-1344.59	-1355.39	072.96
1402.50	004023	-1344.55	-1355.35	072.96
1402.50	004300	-1344.54	-1355.34	072.96
1402.48	004200	-1344.52	-1355.32	072.96
1402.45	004095	-1344.50	-1355.30	072.96
1402.45	003909	-1344.50	-1355.30	072.96
1402.46	003850	-1344.50	-1355.30	072.96
1402.45	003964	-1344.50	-1355.30	072.96
1402.44	004209	-1344.48	-1355.28	072.96
1402.40	004073	-1344.45	-1355.25	072.96
1402.38	004177	-1344.42	-1355.22	072.96
1402.36	004209	-1344.40	-1355.20	072.96
1402.34	004023	-1344.39	-1355.19	072.96
1402.27	004273	-1344.32	-1355.12	072.96
1402.22	003936	-1344.26	-1355.06	072.96
1402.21	004005	-1344.25	-1355.05	072.96
1402.20	003891	-1344.25	-1355.05	072.96
1402.21	004136	-1344.25	-1355.05	072.96
1402.21	004145	-1344.25	-1355.05	072.96
1402.17	004041	-1344.21	-1355.01	072.96
1402.16	004082	-1344.20	-1355.00	072.96
1402.11	003805	-1344.16	-1354.96	072.96
1402.11	004132	-1344.15	-1354.95	072.96
1402.07	004114	-1344.12	-1354.92	072.96
1402.06	003991	-1344.11	-1354.91	072.96
1402.06	004018	-1344.11	-1354.91	072.96
1402.04	004014	-1344.09	-1354.89	072.96
1402.02	003941	-1344.06	-1354.86	072.96
1401.99	003995	-1344.04	-1354.84	072.96
1401.97	004168	-1344.01	-1354.81	072.96
1401.97	004027	-1344.01	-1354.81	072.96
1401.97	004086	-1344.01	-1354.81	072.96
1401.95	004041	-1343.99	-1354.79	072.96
1401.92	004223	-1343.96	-1354.76	072.96
1401.92	004009	-1343.96	-1354.76	072.96
1401.92	004155	-1343.96	-1354.76	072.96
1401.88	004159	-1343.92	-1354.72	072.96
1401.86	004145	-1343.91	-1354.71	072.96
1401.83	004086	-1343.88	-1354.68	072.96
1401.82	004114	-1343.87	-1354.67	072.96
1401.82	003982	-1343.86	-1354.66	072.96
1401.78	004136	-1343.82	-1354.62	072.96
1401.74	004068	-1343.78	-1354.58	072.96
1401.73	004100	-1343.77	-1354.57	072.96
1401.73	004282	-1343.77	-1354.57	072.96
1401.70	004286	-1343.74	-1354.54	072.96
1401.69	004000	-1343.73	-1354.53	072.96
1401.68	003900	-1343.72	-1354.52	072.96
1401.68	004205	-1343.72	-1354.52	072.96
1401.65	004309	-1343.69	-1354.49	072.96
1401.63	004218	-1343.67	-1354.47	072.96
1401.61	003868	-1343.65	-1354.45	072.96
1401.58	004195	-1343.63	-1354.43	072.96
1401.58	003991	-1343.63	-1354.43	072.96
1401.57	004218	-1343.61	-1354.41	072.96
1401.54	003968	-1343.58	-1354.38	072.96
1401.52	004100	-1343.56	-1354.36	072.96
1401.49	004205	-1343.54	-1354.34	072.96
1401.48	004250	-1343.53	-1354.33	072.96
1401.46	003868	-1343.50	-1354.30	072.96
1401.44	004227	-1343.48	-1354.28	072.96
1401.44	004123	-1343.48	-1354.28	072.96
1401.44	004091	-1343.48	-1354.28	072.96
1401.44	004168	-1343.48	-1354.28	072.96
1401.42	004123	-1343.46	-1354.26	072.96
1401.39	003977	-1343.43	-1354.23	072.96
1401.37	004027	-1343.41	-1354.21	072.96
1401.35	004241	-1343.39	-1354.19	072.96
1401.34	004082	-1343.38	-1354.18	072.96
1401.30	004227	-1343.34	-1354.14	072.96
1401.27	004105	-1343.31	-1354.11	072.96
1401.24	003736	-1343.29	-1354.09	072.96
1401.24	004068	-1343.29	-1354.09	072.96
1401.24	004105	-1343.29	-1354.09	072.96
1401.21	004282	-1343.25	-1354.05	072.96
1401.19	004032	-1343.24	-1354.04	072.96
1401.19	003995	-1343.24	-1354.04	072.96
1401.18	004082	-1343.22	-1354.02	072.96
1401.15	004291	-1343.19	-1353.99	072.96
1401.13	004186	-1343.17	-1353.97	072.96
1401.10	003995	-1343.14	-1353.94	072.96
1401.10	003973	-1343.14	-1353.94	072.96
1401.09	004314	-1343.14	-1353.94	072.96
1401.05	004091	-1343.10	-1353.90	072.96
1401.04	003982	-1343.09	-1353.89	072.96
1401.00	004109	-1343.05	-1353.85	072.96
1401.00	003891	-1343.05	-1353.85	072.96
1401.00	004305	-1343.05	-1353.85	072.96
1400.97	004236	-1343.01	-1353.81	072.96
1400.95	004286	-1343.00	-1353.80	072.96
1400.95	004245	-1343.00	-1353.80	072.96
1400.95	004150	-1343.00	-1353.80	072.96
1400.92	004291	-1342.97	-1353.77	072.96
1400.90	004059	-1342.95	-1353.75	072.96
1400.88	003832	-1342.93	-1353.73	072.96
1400.86	003959	-1342.90	-1353.70	072.96
1400.86	004259	-1342.90	-1353.70	072.96
1400.83	004282	-1342.87	-1353.67	072.96
1400.81	004109	-1342.85	-1353.65	072.96
1400.77	004195	-1342.81	-1353.61	072.96
1400.76	004268	-1342.80	-1353.60	072.96
1400.76	004014	-1342.80	-1353.60	072.96
1400.74	003973	-1342.79	-1353.59	072.96
1400.71	004286	-1342.76	-1353.56	072.96
1400.71	004005	-1342.76	-1353.56	072.96
1400.70	004305	-1342.75	-1353.55	072.96
1400.67	004082	-1342.71	-1353.51	072.96
1400.66	004186	-1342.71	-1353.51	072.96
1400.62	004241	-1342.67	-1353.47	072.96
1400.61	004150	-1342.66	-1353.46	072.96
1400.60	004127	-1342.64	-1353.44	072.96
1400.57	004173	-1342.62	-1353.42	072.96
1400.56	004332	-1342.61	-1353.41	072.96
1400.54	004032	-1342.58	-1353.38	072.96
1400.52	004405	-1342.56	-1353.36	072.96
1400.52	004123	-1342.56	-1353.36	072.96
1400.48	003905	-1342.53	-1353.33	072.96
1400.49	004159	-1342.53	-1353.33	072.96
1400.51	004155	-1342.55	-1353.35	072.96
1400.48	004168	-1342.53	-1353.33	072.96
1400.47	004082	-1342.51	-1353.31	072.96
1400.44	004241	-1342.48	-1353.28	072.96
1400.42	003995	-1342.47	-1353.27	072.96
1400.40	004105	-1342.45	-1353.25	072.96
1400.38	004050	-1342.43	-1353.23	072.96
1400.37	004395	-1342.42	-1353.22	072.96
1400.35	004236	-1342.39	-1353.19	072.96
1400.32	004223	-1342.37	-1353.17	072.96
1400.29	004245	-1342.34	-1353.14	072.96
1400.28	004245	-1342.32	-1353.12	072.96
1400.28	004095	-1342.32	-1353.12	072.96
1400.27	004286	-1342.32	-1353.12	072.96
1400.24	004095	-1342.28	-1353.08	072.96
1400.23	004277	-1342.27	-1353.07	072.96
1400.20	004177	-1342.24	-1353.04	072.96
1400.18	004223	-1342.22	-1353.02	072.96
1400.18	004223	-1342.22	-1353.02	072.96
1400.15	004255	-1342.20	-1353.00	072.96
1400.13	004118	-1342.18	-1352.98	072.96
1400.13	004209	-1342.17	-1352.97	072.96
1400.09	004264	-1342.13	-1352.93	072.96
1400.08	003950	-1342.12	-1352.92	072.96
1400.04	004236	-1342.08	-1352.88	072.96
1400.03	004295	-1342.08	-1352.88	072.96
1400.03	004086	-1342.08	-1352.88	072.96
1400.03	004286	-1342.08	-1352.88	072.96
1400.01	004109	-1342.05	-1352.85	072.96
1399.99	004091	-1342.03	-1352.83	072.96
1399.98	004236	-1342.02	-1352.82	072.96
1399.94	004236	-1341.99	-1352.79	072.96
1399.94	004095	-1341.98	-1352.78	072.96
1399.94	004300	-1341.98	-1352.78	072.96
1399.90	004205	-1341.94	-1352.74	072.96
1399.87	004332	-1341.91	-1352.71	072.96
1399.84	004255	-1341.89	-1352.69	072.96
1399.83	004359	-1341.87	-1352.67	072.96
1399.79	004373	-1341.84	-1352.64	072.96
1399.79	003955	-1341.84	-1352.64	072.96
1399.79	004159	-1341.84	-1352.64	072.96
1399.79	004064	-1341.83	-1352.63	072.96
1399.76	004277	-1341.80	-1352.60	072.96
1399.75	004268	-1341.79	-1352.59	072.96
1399.71	004386	-1341.76	-1352.56	072.96
1399.70	004186	-1341.74	-1352.54	072.96
1399.69	004141	-1341.73	-1352.53	072.96
1399.66	004282	-1341.70	-1352.50	072.96
1399.65	004318	-1341.69	-1352.49	072.96
1399.65	004073	-1341.69	-1352.49	072.96
1399.60	004241	-1341.65	-1352.45	072.96
1399.60	004336	-1341.64	-1352.44	072.96
1399.55	004186	-1341.60	-1352.40	072.96
1399.55	004059	-1341.60	-1352.40	072.96
1399.55	004059	-1341.60	-1352.40	072.96
1399.55	004082	-1341.60	-1352.40	072.96
1399.55	004068	-1341.60	-1352.40	072.96
1399.53	004086	-1341.57	-1352.37	072.96
1399.50	004082	-1341.55	-1352.35	072.96
1399.48	004182	-1341.52	-1352.32	072.96
1399.46	004218	-1341.50	-1352.30	072.96
1399.46	004536	-1341.50	-1352.30	072.96
1399.42	004141	-1341.47	-1352.27	072.96
1399.40	004364	-1341.45	-1352.25	072.96
1399.36	004155	-1341.40	-1352.20	072.96
1399.36	004036	-1341.40	-1352.20	072.96
1399.34	004123	-1341.39	-1352.19	072.96
1399.31	004373	-1341.35	-1352.15	072.96
1399.31	004427	-1341.35	-1352.15	072.96
1399.31	004241	-1341.35	-1352.15	072.96
1399.29	004077	-1341.33	-1352.13	072.96
1399.26	003836	-1341.31	-1352.11	072.96
1399.25	004223	-1341.29	-1352.09	072.96
1399.21	004232	-1341.26	-1352.06	072.96
1399.21	004032	-1341.26	-1352.06	072.96
1399.19	004332	-1341.24	-1352.04	072.96
1399.17	004073	-1341.22	-1352.02	072.96
1399.15	004182	-1341.19	-1351.99	072.96
1399.12	004545	-1341.16	-1351.96	072.96
1399.11	004505	-1341.15	-1351.95	072.96
1399.07	004136	-1341.11	-1351.91	072.96
1399.07	004250	-1341.11	-1351.91	072.96
1399.05	004477	-1341.10	-1351.90	072.96
1399.03	004214	-1341.07	-1351.87	072.96
1399.04	004086	-1341.09	-1351.89	072.96
1399.03	004127	-1341.08	-1351.88	072.96
1399.02	004400	-1341.07	-1351.87	072.96
1399.01	004327	-1341.05	-1351.85	072.96
1398.97	003986	-1341.02	-1351.82	072.96
1398.97	004418	-1341.02	-1351.82	072.96
1398.95	004259	-1340.99	-1351.79	072.96
1398.92	004241	-1340.97	-1351.77	072.96
1398.89	004195	-1340.94	-1351.74	072.96
1398.88	004114	-1340.92	-1351.72	072.96
1398.88	004127	-1340.92	-1351.72	072.96
1398.85	004173	-1340.89	-1351.69	072.96
1398.83	004282	-1340.87	-1351.67	072.96
1398.83	004027	-1340.87	-1351.67	072.96
1398.82	004118	-1340.87	-1351.67	072.96
1398.79	004186	-1340.83	-1351.63	072.96
1398.78	004118	-1340.82	-1351.62	072.96
1398.74	004318	-1340.78	-1351.58	072.96
1398.73	004468	-1340.77	-1351.57	072.96
1398.71	004032	-1340.75	-1351.55	072.96
1398.68	004132	-1340.73	-1351.53	072.96
1398.68	004109	-1340.73	-1351.53	072.96
1398.68	004336	-1340.73	-1351.53	072.96
1398.64	004100	-1340.68	-1351.48	072.96
1398.63	004227	-1340.68	-1351.48	072.96
1398.62	004341	-1340.66	-1351.46	072.96
1398.60	004273	-1340.64	-1351.44	072.96
1398.60	004055	-1340.64	-1351.44	072.96
1398.59	004232	-1340.63	-1351.43	072.96
1398.59	004259	-1340.63	-1351.43	072.96
1398.58	004482	-1340.63	-1351.43	072.96
1398.54	004114	-1340.59	-1351.39	072.96
1398.53	004205	-1340.58	-1351.38	072.96
1398.50	004441	-1340.55	-1351.35	072.96
1398.45	004250	-1340.50	-1351.30	072.96
1398.34	004236	-1340.39	-1351.19	072.96
1398.26	004318	-1340.31	-1351.11	072.96
1398.25	004332	-1340.29	-1351.09	072.96
1398.27	004264	-1340.32	-1351.12	072.96
1398.30	004400	-1340.34	-1351.14	072.96
1398.30	004232	-1340.34	-1351.14	072.96
1398.27	004018	-1340.31	-1351.11	072.96
1398.23	004118	-1340.28	-1351.08	072.96
1398.20	004400	-1340.24	-1351.04	072.96
1398.17	004355	-1340.21	-1351.01	072.96
1398.15	004291	-1340.19	-1350.99	072.96
1398.15	004409	-1340.19	-1350.99	072.96
1398.15	004041	-1340.19	-1350.99	072.96
1398.13	004273	-1340.17	-1350.97	072.96
1398.10	004145	-1340.15	-1350.95	072.96
1398.06	004218	-1340.11	-1350.91	072.96
1398.04	004032	-1340.09	-1350.89	072.96
1398.01	004182	-1340.05	-1350.85	072.96
1398.01	003941	-1340.05	-1350.85	072.96
1398.01	003968	-1340.05	-1350.85	072.96
1398.01	004109	-1340.05	-1350.85	072.96
1398.00	004232	-1340.04	-1350.84	072.96
1397.97	004259	-1340.01	-1350.81	072.96
1397.96	004232	-1340.00	-1350.80	072.96
1397.93	004232	-1339.97	-1350.77	072.96
1397.91	004350	-1339.95	-1350.75	072.96
1397.90	004000	-1339.95	-1350.75	072.96
1397.87	004355	-1339.91	-1350.71	072.96
1397.86	004209	-1339.91	-1350.71	072.96
1397.82	004605	-1339.86	-1350.66	072.96
1397.81	004177	-1339.86	-1350.66	072.96
1397.78	004264	-1339.83	-1350.63	072.96
1397.76	004259	-1339.81	-1350.61	072.96
1397.76	003991	-1339.81	-1350.61	072.96
1397.76	004227	-1339.81	-1350.61	072.96
1397.75	004309	-1339.80	-1350.60	072.96
1397.72	004141	-1339.77	-1350.57	072.96
1397.71	004318	-1339.76	-1350.56	072.96
1397.67	004286	-1339.72	-1350.52	072.96
1397.67	004277	-1339.71	-1350.51	072.96
1397.66	004150	-1339.71	-1350.51	072.96
1397.64	004150	-1339.68	-1350.48	072.96
1397.62	004250	-1339.66	-1350.46	072.96
1397.59	004123	-1339.64	-1350.44	072.96
1397.57	004377	-1339.62	-1350.42	072.96
1397.55	004345	-1339.60	-1350.40	072.96
1397.52	004209	-1339.57	-1350.37	072.96
1397.52	004364	-1339.57	-1350.37	072.96
1397.52	004395	-1339.57	-1350.37	072.96
1397.52	004559	-1339.57	-1350.37	072.96
1397.52	004464	-1339.57	-1350.37	072.96
1397.48	004141	-1339.53	-1350.33	072.96
1397.47	004373	-1339.52	-1350.32	072.96
1397.44	004218	-1339.49	-1350.29	072.96
1397.43	004091	-1339.47	-1350.27	072.96
1397.41	004545	-1339.45	-1350.25	072.96
1397.38	004405	-1339.42	-1350.22	072.96
1397.35	004332	-1339.40	-1350.20	072.96
1397.33	004214	-1339.37	-1350.17	072.96
1397.31	004395	-1339.36	-1350.16	072.96
1397.28	004305	-1339.33	-1350.13	072.96
1397.28	004164	-1339.33	-1350.13	072.96
1397.28	004055	-1339.33	-1350.13	072.96
1397.28	004182	-1339.33	-1350.13	072.96
1397.25	004232	-1339.30	-1350.10	072.96
1397.22	004314	-1339.26	-1350.06	072.96
1397.19	004245	-1339.23	-1350.03	072.96
1397.18	004109	-1339.23	-1350.03	072.96
1397.14	004668	-1339.19	-1349.99	072.96
1397.14	004445	-1339.18	-1349.98	072.96
1397.13	004205	-1339.18	-1349.98	072.96
1397.11	004136	-1339.15	-1349.95	072.96
1397.09	004318	-1339.13	-1349.93	072.96
1397.06	004150	-1339.11	-1349.91	072.96
1397.04	004373	-1339.08	-1349.88	072.96
1397.04	004055	-1339.08	-1349.88	072.96
1397.04	004382	-1339.08	-1349.88	072.96
1397.04	004586	-1339.08	-1349.88	072.96
1397.02	004355	-1339.06	-1349.86	072.96
1396.99	004114	-1339.04	-1349.84	072.96
1396.99	004159	-1339.03	-1349.83	072.96
1396.95	004136	-1338.99	-1349.79	072.96
1396.94	004400	-1338.99	-1349.79	072.96
1396.92	004232	-1338.97	-1349.77	072.96
1396.89	004259	-1338.93	-1349.73	072.96
1396.85	004164	-1338.89	-1349.69	072.96
1396.84	004136	-1338.89	-1349.69	072.96
1396.83	004273	-1338.87	-1349.67	072.96
1396.80	004268	-1338.85	-1349.65	072.96
1396.80	004100	-1338.84	-1349.64	072.96
1396.80	004073	-1338.84	-1349.64	072.96
1396.79	004414	-1338.83	-1349.63	072.96
1396.75	004286	-1338.79	-1349.59	072.96
1396.75	004245	-1338.79	-1349.59	072.96
1396.71	004273	-1338.75	-1349.55	072.96
1396.70	004309	-1338.75	-1349.55	072.96
1396.70	004409	-1338.75	-1349.55	072.96
1396.68	004482	-1338.72	-1349.52	072.96
1396.65	004423	-1338.70	-1349.50	072.96
1396.63	004305	-1338.68	-1349.48	072.96
1396.60	004323	-1338.65	-1349.45	072.96
1396.59	004477	-1338.63	-1349.43	072.96
1396.57	004509	-1338.61	-1349.41	072.96
1396.56	004209	-1338.60	-1349.40	072.96
1396.56	004336	-1338.60	-1349.40	072.96
1396.56	004377	-1338.61	-1349.41	072.96
1396.56	004418	-1338.60	-1349.40	072.96
1396.55	004409	-1338.59	-1349.39	072.96
1396.51	004314	-1338.55	-1349.35	072.96
1396.48	004500	-1338.52	-1349.32	072.96
1396.46	004336	-1338.50	-1349.30	072.96
1396.43	004191	-1338.48	-1349.28	072.96
1396.37	004427	-1338.42	-1349.22	072.96
1396.33	004259	-1338.38	-1349.18	072.96
1396.31	004205	-1338.36	-1349.16	072.96
1396.31	004177	-1338.36	-1349.16	072.96
1396.31	004214	-1338.36	-1349.16	072.96
1396.31	004282	-1338.36	-1349.16	072.96
1396.29	004409	-1338.34	-1349.14	072.96
1396.27	004305	-1338.31	-1349.11	072.96
1396.26	004364	-1338.30	-1349.10	072.96
1396.22	004259	-1338.27	-1349.07	072.96
1396.22	004086	-1338.26	-1349.06	072.96
1396.20	004277	-1338.24	-1349.04	072.96
1396.17	004359	-1338.21	-1349.01	072.96
1396.17	004305	-1338.21	-1349.01	072.96
1396.15	004514	-1338.19	-1348.99	072.96
1396.12	004355	-1338.17	-1348.97	072.96
1396.08	004245	-1338.12	-1348.92	072.96
1396.07	004227	-1338.12	-1348.92	072.96
1396.07	004500	-1338.11	-1348.91	072.96
1396.03	004505	-1338.08	-1348.88	072.96
1396.03	004295	-1338.07	-1348.87	072.96
1396.02	004300	-1338.07	-1348.87	072.96
1396.02	004314	-1338.07	-1348.87	072.96
1396.00	004223	-1338.04	-1348.84	072.96
1395.98	004195	-1338.02	-1348.82	072.96
1395.96	004286	-1338.01	-1348.81	072.96
1395.93	004341	-1337.98	-1348.78	072.96
1395.93	004209	-1337.97	-1348.77	072.96
1395.90	004295	-1337.94	-1348.74	072.96
1395.88	004418	-1337.92	-1348.72	072.96
1395.85	004164	-1337.89	-1348.69	072.96
1395.83	004227	-1337.88	-1348.68	072.96
1395.83	004286	-1337.88	-1348.68	072.96
1395.83	004600	-1337.88	-1348.68	072.96
1395.80	004373	-1337.84	-1348.64	072.96
1395.78	004291	-1337.83	-1348.63	072.96
1395.78	004432	-1337.83	-1348.63	072.96
1395.76	004536	-1337.81	-1348.61	072.96
1395.73	004264	-1337.78	-1348.58	072.96
1395.71	004323	-1337.75	-1348.55	072.96
1395.69	004332	-1337.73	-1348.53	072.96
1395.69	004386	-1337.73	-1348.53	072.96
1395.67	004245	-1337.72	-1348.52	072.96
1395.64	004418	-1337.68	-1348.48	072.96
1395.63	004350	-1337.68	-1348.48	072.96
1395.60	004459	-1337.64	-1348.44	072.96
1395.59	004218	-1337.63	-1348.43	072.96
1395.59	004500	-1337.63	-1348.43	072.96
1395.58	004368	-1337.62	-1348.42	072.96
1395.59	004327	-1337.63	-1348.43	072.96
1395.58	004291	-1337.62	-1348.42	072.96
1395.54	004300	-1337.59	-1348.39	072.96
1395.52	004309	-1337.56	-1348.36	072.96
1395.49	004450	-1337.54	-1348.34	072.96
1395.48	004173	-1337.52	-1348.32	072.96
1395.46	004236	-1337.50	-1348.30	072.96
1395.44	004541	-1337.48	-1348.28	072.96
1395.40	004564	-1337.45	-1348.25	072.96
1395.39	004123	-1337.43	-1348.23	072.96
1395.35	004373	-1337.40	-1348.20	072.96
1395.35	004709	-1337.39	-1348.19	072.96
1395.35	004332	-1337.39	-1348.19	072.96
1395.34	004514	-1337.38	-1348.18	072.96
1395.30	004286	-1337.34	-1348.14	072.96
1395.30	004409	-1337.34	-1348.14	072.96
1395.27	004191	-1337.31	-1348.11	072.96
1395.25	004600	-1337.30	-1348.10	072.96
1395.23	004373	-1337.27	-1348.07	072.96
1395.20	004395	-1337.25	-1348.05	072.96
1395.20	004473	-1337.25	-1348.05	072.96
1395.19	004305	-1337.23	-1348.03	072.96
1395.15	004400	-1337.20	-1348.00	072.96
1395.15	004309	-1337.20	-1348.00	072.96
1395.11	004423	-1337.15	-1347.95	072.96
1395.11	004259	-1337.15	-1347.95	072.96
1395.10	004700	-1337.15	-1347.95	072.96
1395.09	004332	-1337.13	-1347.93	072.96
1395.08	004536	-1337.13	-1347.93	072.96
1395.06	004218	-1337.10	-1347.90	072.96
1395.06	004664	-1337.10	-1347.90	072.96
1395.02	004314	-1337.06	-1347.86	072.96
1395.01	004600	-1337.05	-1347.85	072.96
1394.97	004232	-1337.01	-1347.81	072.96
1394.96	004336	-1337.01	-1347.81	072.96
1394.94	004314	-1336.99	-1347.79	072.96
1394.91	004295	-1336.96	-1347.76	072.96
1394.88	004268	-1336.92	-1347.72	072.96
1394.87	004405	-1336.91	-1347.71	072.96
1394.86	004341	-1336.91	-1347.71	072.96
1394.86	004455	-1336.90	-1347.70	072.96
1394.83	004373	-1336.88	-1347.68	072.96
1394.82	004377	-1336.86	-1347.66	072.96
1394.82	004386	-1336.86	-1347.66	072.96
1394.78	004468	-1336.83	-1347.63	072.96
1394.77	004691	-1336.81	-1347.61	072.96
1394.77	004241	-1336.81	-1347.61	072.96
1394.73	004450	-1336.78	-1347.58	072.96
1394.72	004168	-1336.76	-1347.56	072.96
1394.71	004268	-1336.76	-1347.56	072.96
1394.67	004359	-1336.72	-1347.52	072.96
1394.67	004477	-1336.72	-1347.52	072.96
1394.66	004305	-1336.70	-1347.50	072.96
1394.62	004482	-1336.67	-1347.47	072.96
1394.62	004673	-1336.67	-1347.47	072.96
1394.62	004218	-1336.67	-1347.47	072.96
1394.62	004577	-1336.67	-1347.47	072.96
1394.62	004600	-1336.67	-1347.47	072.96
1394.59	004405	-1336.64	-1347.44	072.96
1394.57	004455	-1336.61	-1347.41	072.96
1394.53	004323	-1336.57	-1347.37	072.96
1394.53	004200	-1336.57	-1347.37	072.96
1394.48	004400	-1336.53	-1347.33	072.96
1394.40	004564	-1336.45	-1347.25	072.96
1394.34	004605	-1336.38	-1347.18	072.96
1394.33	004545	-1336.37	-1347.17	072.96
1394.33	004645	-1336.38	-1347.18	072.96
1394.33	004445	-1336.38	-1347.18	072.96
1394.33	004114	-1336.38	-1347.18	072.96

#S C A N  C A N C E L L E D
