#XPS-spectrum

#Date/time: 		 2018-12-19__15-04-21


#AK pressure: 	can 	 mbar
#Pass energy: 	43.30 		 eV
#Volt. bias: 	0.0 		 V
#E_Photon: 	1486.7 		 V
#I_Emission: 	20 		 mA
#Counttime: 	12000 		 ms
#Prevoltage: 	0 		 V
#Workfunction: 	5.1 		 eV
#Samples/eV: 	1.25 		 1/s
#TDAC: 	System.Windows.Forms.TextBox, Text: 1.207 		 V
#V_Lens: 	System.Windows.Forms.TextBox, Text: 3800 		 V
#Slope: 	0.1000 		 Samples/eV
#V_Channelt.: 	2800 		 V
#Flow cooling: 	0,0 		 l/min
#Slit: 	C1 	




#E_bind 	 cps 	 E_kin 	 V_hemo


-0021.74	1613.63710	1503.34	1074649708.0	-1444.05
-0020.94	2118.18134	1502.54	1083449710.0	-1443.25
-0020.23	3113.63566	1501.83	1092249712.0	-1442.54
-0019.49	3840.91040	1501.09	1101049709.0	-1441.80
-0018.62	3999.99955	1500.22	1109849710.0	-1440.93
-0017.67	3909.09091	1499.27	1118649710.0	-1439.98
-0016.73	3381.81818	1498.33	1127449710.0	-1439.04
-0015.82	3609.09132	1497.42	1136249709.0	-1438.14
-0014.94	3131.81783	1496.54	1145049710.0	-1437.25
-0014.05	2322.72780	1495.65	1153849708.0	-1436.36
-0013.17	2072.72562	1494.77	1162649715.0	-1435.48
-0012.30	1763.63757	1493.90	1171449709.0	-1434.61
-0011.44	2045.45524	1493.04	1180249706.0	-1433.75
-0010.53	1909.09026	1492.13	1189049709.0	-1432.84
-0009.65	2022.72796	1491.25	1197849706.0	-1431.96
-0008.80	2190.90710	1490.40	1206649714.0	-1431.11
-0007.95	2181.81917	1489.55	1215449710.0	-1430.27
-0007.07	2127.27297	1488.67	1224249709.0	-1429.38
-0006.14	2304.54519	1487.74	1233049710.0	-1428.45
-0005.22	2377.27246	1486.82	1241849711.0	-1427.53
-0004.34	2245.45557	1485.94	1250649707.0	-1426.65
-0003.48	2204.54495	1485.08	1259449709.0	-1425.79
-0002.59	2359.09118	1484.19	1268249708.0	-1424.90
-0001.70	2440.90770	1483.30	1277049713.0	-1424.01
-0000.85	2054.54592	1482.45	1285849711.0	-1423.16
0000.00	2250.00102	1481.60	1294649707.0	-1422.31
0000.88	2259.09040	1480.72	1303449709.0	-1421.43
0001.80	2281.81663	1479.80	1312249715.0	-1420.51
0002.70	2277.27402	1478.90	1321049710.0	-1419.61
0003.57	2390.90991	1478.03	1329849707.0	-1418.74
0004.41	2186.36289	1477.19	1338649710.0	-1417.90
0005.29	2145.45381	1476.31	1347449713.0	-1417.02
0006.17	2354.54626	1475.43	1356249710.0	-1416.14
0007.03	2331.81977	1474.57	1365049704.0	-1415.28
0007.88	2413.63499	1473.72	1373849709.0	-1414.43
0008.79	2313.63715	1472.81	1382649706.0	-1413.52
0009.73	2372.72619	1471.87	1391449710.0	-1412.58
0010.65	2145.45503	1470.95	1400249708.0	-1411.66
0011.53	2554.54545	1470.07	1409049708.0	-1410.78
0012.39	2209.09066	1469.21	1417849709.0	-1409.92
0013.27	2545.45455	1468.33	1426649709.0	-1409.04
0014.15	2459.09119	1467.45	1435449708.0	-1408.16
0015.00	2250.00077	1466.60	1444249705.0	-1407.31
0015.88	2404.54327	1465.72	1453049713.0	-1406.43
0016.79	2554.54604	1464.81	1461849711.0	-1405.52
0017.71	2249.99949	1463.89	1470649713.0	-1404.61
0018.61	2404.54682	1462.99	1479449708.0	-1403.70
0019.47	2450.00056	1462.13	1488249706.0	-1402.84
0020.33	2572.72552	1461.27	1497049712.0	-1401.98
0021.20	2709.09399	1460.40	1505849702.0	-1401.11
0022.07	2436.36059	1459.53	1514649713.0	-1400.24
0022.92	2540.91025	1458.68	1523449709.0	-1399.39
0023.79	2527.27330	1457.81	1532249707.0	-1398.52
0024.71	2649.99910	1456.89	1541049710.0	-1397.60
0025.62	2640.90909	1455.98	1549849710.0	-1396.70
0026.52	2745.45517	1455.08	1558649708.0	-1395.79
0027.39	2613.63696	1454.21	1567449706.0	-1394.92
0028.26	2604.54575	1453.34	1576249705.0	-1394.05
0029.15	2840.90941	1452.45	1585049704.0	-1393.16
0030.02	2972.72491	1451.58	1593849711.0	-1392.29
0030.86	2709.09122	1450.74	1602649710.0	-1391.45
0031.73	3099.99930	1449.87	1611449712.0	-1390.58
0032.65	3563.63677	1448.95	1620249711.0	-1389.66
0033.56	3586.36567	1448.04	1629049706.0	-1388.75
0034.44	3568.18020	1447.16	1637849710.0	-1387.87
0035.29	3590.90705	1446.31	1646649715.0	-1387.02
0036.15	3377.27465	1445.45	1655449710.0	-1386.16
0037.04	3522.72727	1444.56	1664249710.0	-1385.28
0037.90	3236.36290	1443.70	1673049712.0	-1384.41
0038.74	2900.00165	1442.86	1681849707.0	-1383.57
0039.62	2840.90877	1441.98	1690649708.0	-1382.69
0040.56	3090.90698	1441.04	1699449714.0	-1381.75
0041.51	3045.45766	1440.09	1708249705.0	-1380.80
0042.41	2949.99899	1439.19	1717049708.0	-1379.90
0043.27	3140.90766	1438.33	1725849712.0	-1379.04
0044.15	3181.84494	1437.45	1734649638.0	-1378.16
0045.04	3036.33845	1436.56	1743449711.0	-1377.27
0045.91	3122.72905	1435.69	1752249706.0	-1376.40
0046.77	3259.09091	1434.83	1761049706.0	-1375.54
0047.65	3399.99768	1433.95	1769849712.0	-1374.66
0048.58	3886.36584	1433.02	1778649707.0	-1373.73
0049.49	4268.18085	1432.11	1787449709.0	-1372.82
0050.37	4700.00000	1431.23	1796249709.0	-1371.94
0051.23	5622.72791	1430.37	1805049708.0	-1371.08
0052.09	6000.00205	1429.51	1813849705.0	-1370.22
0052.96	5122.72611	1428.64	1822649707.0	-1369.35
0053.83	4986.36534	1427.77	1831449704.0	-1368.48
0054.69	5472.72603	1426.91	1840249706.0	-1367.62
0055.58	5422.72604	1426.02	1849049708.0	-1366.73
0056.51	4845.45455	1425.09	1857849708.0	-1365.80
0057.41	4322.72580	1424.19	1866649711.0	-1364.90
0058.30	4859.09422	1423.30	1875449705.0	-1364.01
0059.18	5690.90715	1422.42	1884249708.0	-1363.13
0060.05	10081.81818	1421.55	1893049708.0	-1362.26
0060.93	24513.63079	1420.67	1901849710.0	-1361.38
0061.79	30250.02063	1419.81	1910649704.0	-1360.52
0062.65	17759.08082	1418.95	1919449709.0	-1359.66
0063.55	12177.27688	1418.05	1928249706.0	-1358.76
0064.47	21563.63146	1417.13	1937049708.0	-1357.84
0065.37	27436.36052	1416.23	1945849709.0	-1356.94
0066.25	17890.91519	1415.35	1954649706.0	-1356.06
0067.10	10563.63396	1414.50	1963449708.0	-1355.21
0067.97	8690.90712	1413.63	1972249710.0	-1354.34
0068.84	8090.90541	1412.76	1981049714.0	-1353.47
0069.70	7954.55088	1411.90	1989849708.0	-1352.61
0070.55	8159.09184	1411.05	1998649707.0	-1351.76
0071.46	7795.45455	1410.14	2007449707.0	-1350.86
0072.39	7804.54457	1409.21	2016249708.0	-1349.92
0073.31	7954.54817	1408.29	2025049705.0	-1349.01
0074.18	8422.71962	1407.42	2033849713.0	-1348.13
0075.05	8454.55122	1406.55	2042649707.0	-1347.26
0075.94	9004.54034	1405.66	2051449712.0	-1346.37
0076.81	9286.41534	1404.79	2060249663.0	-1345.50
0077.68	9518.13423	1403.92	2069049707.0	-1344.63
0078.54	9431.81068	1403.06	2077849714.0	-1343.78
0079.44	9154.55378	1402.16	2086649706.0	-1342.87
0080.37	9854.54098	1401.23	2095449710.0	-1341.94
0081.27	9659.09091	1400.33	2104249710.0	-1341.04
0082.13	10145.45800	1399.47	2113049707.0	-1340.18
0082.99	10390.90555	1398.61	2121849710.0	-1339.32
0083.87	10577.27273	1397.73	2130649710.0	-1338.44
0084.74	10313.63519	1396.86	2139449711.0	-1337.57
0085.59	11059.09594	1396.01	2148249707.0	-1336.72
0086.44	10936.35867	1395.16	2157049711.0	-1335.87
0087.35	11190.90782	1394.25	2165849712.0	-1334.96
0088.28	10409.09801	1393.32	2174649706.0	-1334.03
0089.19	11409.08702	1392.41	2183449709.0	-1333.12
0090.06	10477.27749	1391.54	2192249705.0	-1332.25
0090.92	10404.54191	1390.68	2201049708.0	-1331.39
0091.80	10699.99757	1389.80	2209849710.0	-1330.51
0092.68	10713.63758	1388.92	2218649709.0	-1329.63
0093.54	10663.63758	1388.06	2227449708.0	-1328.77
0094.40	10395.45218	1387.20	2236249710.0	-1327.91
0095.30	10495.45693	1386.30	2245049708.0	-1327.01
0096.22	10640.91030	1385.38	2253849707.0	-1326.09
0097.11	10540.90550	1384.49	2262649710.0	-1325.20
0097.97	10136.36133	1383.63	2271449712.0	-1324.34
0098.82	10640.91514	1382.78	2280249707.0	-1323.49
0099.62	10045.45340	1381.98	2289049708.0	-1322.69
0100.48	10277.27390	1381.12	2297849707.0	-1321.83
0101.34	9604.54109	1380.26	2306649711.0	-1320.97
0102.20	10409.09446	1379.40	2315449708.0	-1320.11
0103.13	9918.17956	1378.47	2324249710.0	-1319.18
0104.06	10177.27273	1377.54	2333049710.0	-1318.25
0104.98	9995.45455	1376.62	2341849710.0	-1317.33
0105.85	10063.64323	1375.75	2350649704.0	-1316.46
0106.71	10281.80416	1374.89	2359449716.0	-1315.60
0107.60	9695.46005	1374.00	2368249711.0	-1314.71
0108.47	9972.72614	1373.13	2377049712.0	-1313.84
0109.33	10272.73194	1372.27	2385849708.0	-1312.98
0110.21	9859.08979	1371.39	2394649709.0	-1312.10
0111.14	9927.27160	1370.46	2403449710.0	-1311.17
0112.05	9818.17959	1369.55	2412249712.0	-1310.26
0112.93	10272.72961	1368.67	2421049710.0	-1309.38
0113.79	9818.18517	1367.81	2429849707.0	-1308.52
0114.67	9800.00000	1366.93	2438649707.0	-1307.65
0115.54	9940.90570	1366.06	2447449710.0	-1306.77
0116.40	10104.54316	1365.20	2456249712.0	-1305.91
0117.25	9736.37027	1364.35	2465049706.0	-1305.06
0118.13	9799.99889	1363.47	2473849707.0	-1304.18
0119.06	9900.00113	1362.54	2482649706.0	-1303.25
0119.98	9827.26714	1361.62	2491449711.0	-1302.34
0120.87	10059.09434	1360.73	2500249708.0	-1301.44
0121.73	9881.81144	1359.87	2509049714.0	-1300.58
0122.61	9877.28171	1358.99	2517849706.0	-1299.70
0123.48	9627.27163	1358.12	2526649707.0	-1298.83
0124.34	9831.81930	1357.26	2535449706.0	-1297.97
0125.20	9527.26948	1356.40	2544249709.0	-1297.11
0126.08	9804.54545	1355.52	2553049709.0	-1296.23
0127.01	9654.54216	1354.59	2561849712.0	-1295.30
0127.92	9809.09314	1353.68	2570649710.0	-1294.39
0128.78	9781.82485	1352.82	2579449704.0	-1293.53
0129.63	10145.43956	1351.97	2588249717.0	-1292.68
0130.50	9786.37365	1351.10	2597049708.0	-1291.81
0131.37	9340.90909	1350.23	2605849708.0	-1290.94
0132.23	9590.90582	1349.37	2614649711.0	-1290.08
0133.08	9409.09412	1348.52	2623449708.0	-1289.23
0133.96	9540.90909	1347.64	2632249708.0	-1288.35
0134.91	9227.26644	1346.69	2641049714.0	-1287.40
0135.82	9454.55190	1345.78	2649849708.0	-1286.49
0136.71	9495.45131	1344.89	2658649711.0	-1285.60
0137.58	9572.72727	1344.02	2667449711.0	-1284.73
0138.45	9695.45344	1343.15	2676249712.0	-1283.86
0139.33	9790.91132	1342.27	2685049710.0	-1282.98
0140.20	9700.07936	1341.40	2693849638.0	-1282.11
0141.07	9377.19494	1340.53	2702649711.0	-1281.24
0141.95	9268.17550	1339.65	2711449717.0	-1280.36
0142.88	8909.09597	1338.72	2720249712.0	-1279.43
0143.78	9240.91014	1337.82	2729049711.0	-1278.53
0144.65	9318.18817	1336.95	2737849705.0	-1277.66
0145.50	9349.99256	1336.10	2746649712.0	-1276.81
0146.37	9418.18075	1335.23	2755449713.0	-1275.95
0147.24	9309.09514	1334.36	2764249709.0	-1275.07
0148.10	9595.45018	1333.50	2773049713.0	-1274.21
0148.96	9436.36793	1332.64	2781849709.0	-1273.35
0149.85	9363.63530	1331.75	2790649710.0	-1272.46
0150.78	9122.72935	1330.82	2799449708.0	-1271.53
0151.68	9086.35847	1329.92	2808249713.0	-1270.63
0152.56	9263.63847	1329.04	2817049711.0	-1269.75
0153.43	9131.82129	1328.17	2825849708.0	-1268.88
0154.30	9204.54127	1327.30	2834649712.0	-1268.01
0155.17	8813.64337	1326.43	2843449705.0	-1267.14
0156.03	8718.16894	1325.57	2852249718.0	-1266.28
0156.88	9009.09910	1324.72	2861049710.0	-1265.43
0157.80	8750.00199	1323.80	2869849708.0	-1264.51
0158.71	9277.27273	1322.89	2878649708.0	-1263.60
0159.60	8722.72727	1322.00	2887449708.0	-1262.71
0160.46	8868.17980	1321.14	2896249710.0	-1261.85
0161.32	8977.27681	1320.28	2905049706.0	-1260.99
0162.19	9172.72310	1319.41	2913849710.0	-1260.12
0163.05	8518.18375	1318.55	2922649708.0	-1259.26
0163.90	8754.54048	1317.70	2931449713.0	-1258.41
0164.75	8827.27975	1316.85	2940249706.0	-1257.56
0165.70	8500.00193	1315.90	2949049704.0	-1256.61
0166.64	8699.99802	1314.96	2957849706.0	-1255.67
0167.56	8713.62943	1314.04	2966649713.0	-1254.75
0168.43	8681.88132	1313.17	2975449649.0	-1253.88
0169.30	8340.84748	1312.30	2984249714.0	-1253.01
0170.18	8504.54932	1311.42	2993049710.0	-1252.13
0171.06	8540.91394	1310.54	3001849705.0	-1251.25
0171.93	8345.45170	1309.67	3010649708.0	-1250.38
0172.80	8354.53786	1308.80	3019449716.0	-1249.52
0173.72	8663.64129	1307.88	3028249711.0	-1248.59
0174.65	8336.36458	1306.95	3037049710.0	-1247.66
0175.53	8536.36170	1306.07	3045849712.0	-1246.78
0176.40	8809.09391	1305.20	3054649709.0	-1245.91
0177.25	8686.36758	1304.35	3063449705.0	-1245.06
0178.13	8222.72073	1303.47	3072249712.0	-1244.18
0179.01	8577.27078	1302.59	3081049714.0	-1243.31
0179.86	8127.27735	1301.74	3089849709.0	-1242.45
0180.73	8518.18472	1300.87	3098649706.0	-1241.59
0181.65	8140.90909	1299.95	3107449706.0	-1240.66
0182.57	8463.63252	1299.03	3116249710.0	-1239.74
0183.47	8368.17992	1298.13	3125049712.0	-1238.84
0184.34	8409.09186	1297.26	3133849711.0	-1237.97
0185.21	8431.82106	1296.39	3142649708.0	-1237.10
0186.09	7804.54545	1295.51	3151449708.0	-1236.22
0186.97	8363.63256	1294.63	3160249712.0	-1235.34
0187.83	8054.55186	1293.77	3169049705.0	-1234.49
0188.69	8327.26800	1292.91	3177849710.0	-1233.62
0189.60	8531.81527	1292.00	3186649713.0	-1232.71
0190.51	8354.54545	1291.09	3195449713.0	-1231.80
0191.41	8336.36837	1290.19	3204249708.0	-1230.90
0192.26	8236.36364	1289.34	3213049708.0	-1230.05
0193.12	8140.90354	1288.48	3221849714.0	-1229.19
0194.00	8240.91096	1287.60	3230649712.0	-1228.32
0194.85	8404.55023	1286.75	3239449707.0	-1227.46
0195.71	8186.36364	1285.89	3248249707.0	-1226.60
0196.60	8409.08422	1285.00	3257049714.0	-1225.71
0197.54	8131.82188	1284.06	3265849710.0	-1224.77
0198.44	7822.72816	1283.16	3274649709.0	-1223.87
0199.33	8149.99907	1282.27	3283449710.0	-1222.98
0200.20	7863.63279	1281.40	3292249714.0	-1222.11
0201.08	7954.54997	1280.52	3301049709.0	-1221.23
0201.96	8250.00375	1279.64	3309849705.0	-1220.35
0202.82	7849.99554	1278.78	3318649710.0	-1219.49
0203.69	7981.82090	1277.91	3327449707.0	-1218.62
0204.59	8109.08999	1277.01	3336249708.0	-1217.72
0205.52	8054.54545	1276.08	3345049708.0	-1216.79
0206.42	8386.36173	1275.18	3353849710.0	-1215.89
0207.29	8081.82002	1274.31	3362649708.0	-1215.02
0208.14	8249.99906	1273.46	3371449709.0	-1214.17
0209.02	8231.82099	1272.58	3380249706.0	-1213.29
0209.89	8099.99632	1271.71	3389049710.0	-1212.42
0210.75	7554.54889	1270.85	3397849706.0	-1211.56
0211.60	7786.36098	1270.00	3406649709.0	-1210.71
0212.49	7749.99648	1269.11	3415449713.0	-1209.82
0213.43	7686.36800	1268.17	3424249708.0	-1208.88
0214.34	7695.45629	1267.26	3433049706.0	-1207.97
0215.21	7772.72639	1266.39	3441849707.0	-1207.10
0216.07	7490.90824	1265.53	3450649708.0	-1206.24
0216.95	7886.36453	1264.65	3459449707.0	-1205.36
0217.83	7490.90739	1263.77	3468249709.0	-1204.48
0218.69	7477.27783	1262.91	3477049703.0	-1203.62
0219.54	7731.80852	1262.06	3485849714.0	-1202.77
0220.43	7827.27806	1261.17	3494649708.0	-1201.88
0221.36	7909.09271	1260.24	3503449706.0	-1200.95
0222.25	7354.53960	1259.35	3512249713.0	-1200.06
0223.13	7427.27695	1258.47	3521049708.0	-1199.18
0223.97	7890.90371	1257.63	3529849714.0	-1198.34
0224.83	7200.00491	1256.77	3538649708.0	-1197.48
0225.71	7713.63549	1255.89	3547449709.0	-1196.60
0226.56	7277.27273	1255.04	3556249709.0	-1195.75
0227.43	7345.45455	1254.17	3565049709.0	-1194.88
0228.34	7309.09174	1253.26	3573849708.0	-1193.97
0229.28	7445.45285	1252.32	3582649710.0	-1193.03
0230.19	7372.72643	1251.41	3591449711.0	-1192.12
0231.07	7240.90662	1250.53	3600249714.0	-1191.24
0231.93	7450.00339	1249.67	3609049710.0	-1190.38
0232.82	7522.73155	1248.78	3617849705.0	-1189.49
0233.69	7340.90659	1247.91	3626649708.0	-1188.62
0234.56	7259.09173	1247.04	3635449707.0	-1187.75
0235.43	6977.27035	1246.17	3644249710.0	-1186.88
0236.34	7231.81736	1245.26	3653049711.0	-1185.97
0237.25	7427.27188	1244.35	3661849712.0	-1185.06
0238.15	7318.18514	1243.45	3670649708.0	-1184.16
0239.01	7281.81735	1242.59	3679449709.0	-1183.30
0239.88	7090.91070	1241.72	3688249707.0	-1182.44
0240.75	7145.45292	1240.85	3697049709.0	-1181.56
0241.61	7440.90909	1239.99	3705849709.0	-1180.70
0242.47	7481.81733	1239.13	3714649710.0	-1179.84
0243.34	7113.63717	1238.26	3723449709.0	-1178.97
0244.25	7331.81485	1237.35	3732249713.0	-1178.06
0245.17	7090.91473	1236.43	3741049706.0	-1177.14
0246.07	7131.81818	1235.53	3749849706.0	-1176.24
0246.94	7172.72890	1234.66	3758649704.0	-1175.37
0247.81	7268.17356	1233.79	3767449714.0	-1174.50
0248.69	6895.45298	1232.91	3776249716.0	-1173.62
0249.54	7186.37017	1232.06	3785049708.0	-1172.77
0250.40	7540.90995	1231.20	3793849707.0	-1171.91
0251.28	7154.54464	1230.32	3802649708.0	-1171.04
0252.19	7345.44870	1229.41	3811449715.0	-1170.12
0253.11	7295.45869	1228.49	3820249710.0	-1169.20
0253.99	7245.45619	1227.61	3829049708.0	-1168.32
0254.84	7286.36115	1226.76	3837849711.0	-1167.47
0255.71	6913.63636	1225.89	3846649711.0	-1166.60
0256.59	7363.63720	1225.01	3855449710.0	-1165.72
0257.46	7290.90578	1224.14	3864249714.0	-1164.85
0258.30	7322.72727	1223.30	3873049714.0	-1164.01
0259.17	7281.82397	1222.43	3881849707.0	-1163.14
0260.09	9140.90701	1221.51	3890649709.0	-1162.22
0261.03	11968.18046	1220.57	3899449710.0	-1161.28
0261.93	13568.17873	1219.67	3908249712.0	-1160.38
0262.79	11840.91313	1218.81	3917049709.0	-1159.52
0263.66	9859.08419	1217.94	3925849715.0	-1158.65
0264.55	8281.82853	1217.05	3934649704.0	-1157.76
0265.42	7763.62666	1216.18	3943449715.0	-1156.89
0266.27	7981.82453	1215.33	3952249708.0	-1156.05
0267.14	7736.35924	1214.46	3961049713.0	-1155.17
0268.07	7695.45804	1213.53	3969849709.0	-1154.24
0268.98	7713.63899	1212.62	3978649706.0	-1153.33
0269.87	7431.81818	1211.73	3987449706.0	-1152.44
0270.72	7540.90823	1210.88	3996249707.0	-1151.59
0271.58	7227.27437	1210.02	4005049705.0	-1150.73
0272.45	7563.63121	1209.15	4013849711.0	-1149.86
0273.31	7068.18182	1208.29	4022649711.0	-1149.00
0274.16	7218.18428	1207.44	4031449708.0	-1148.15
0275.04	7331.81901	1206.56	4040249707.0	-1147.27
0275.96	7554.54460	1205.64	4049049708.0	-1146.35
0276.89	7277.26694	1204.71	4057849715.0	-1145.42
0277.78	7454.55138	1203.82	4066649708.0	-1144.53
0278.63	7368.17763	1202.97	4075449713.0	-1143.68
0279.50	7799.99911	1202.10	4084249714.0	-1142.81
0280.38	7436.37209	1201.22	4093049704.0	-1141.93
0281.24	7740.89941	1200.36	4101849715.0	-1141.07
0282.11	7718.18883	1199.49	4110649707.0	-1140.21
0283.00	7313.63470	1198.60	4119449709.0	-1139.31
0283.91	7404.54041	1197.69	4128249715.0	-1138.40
0284.81	7727.27712	1196.79	4137049710.0	-1137.51
0285.68	7940.91270	1195.92	4145849706.0	-1136.64
0286.52	7472.72642	1195.08	4154649707.0	-1135.79
0287.40	7940.90999	1194.20	4163449706.0	-1134.91
0288.26	8131.81633	1193.34	4172249708.0	-1134.05
0289.11	7554.54460	1192.49	4181049709.0	-1133.20
0289.97	7731.81994	1191.63	4189849707.0	-1132.34
0290.89	7459.09006	1190.71	4198649708.0	-1131.42
0291.83	7745.45367	1189.77	4207449709.0	-1130.48
0292.76	7668.18182	1188.84	4216249709.0	-1129.55
0293.64	7513.63722	1187.96	4225049708.0	-1128.67
0294.50	7431.81565	1187.10	4233849711.0	-1127.81
0295.38	7613.63550	1186.22	4242649712.0	-1126.93
0296.26	7509.09432	1185.34	4251449708.0	-1126.05
0297.10	7818.17649	1184.50	4260249714.0	-1125.22
0297.92	7404.55219	1183.68	4269049706.0	-1124.39
0298.83	7436.35941	1182.77	4277849711.0	-1123.48
0299.76	8086.35996	1181.84	4286649715.0	-1122.55
0300.65	-16.63957	1180.95	482417.0	-1121.66
0301.53	7959.09634	1180.07	9282411.0	-1120.78
0302.37	7759.09179	1179.23	18082410.0	-1119.94
0303.25	8250.00469	1178.35	26882405.0	-1119.06
0304.13	8272.71975	1177.47	35682413.0	-1118.18
0304.97	7836.36898	1176.63	44482407.0	-1117.34
0305.83	8063.62995	1175.77	53282414.0	-1116.48
0306.74	8259.09185	1174.86	62082413.0	-1115.57
0307.67	9186.36259	1173.93	70882414.0	-1114.64
0308.58	9199.99895	1173.02	79682415.0	-1113.73
0309.45	9895.45230	1172.15	88482417.0	-1112.86
0310.32	11163.63383	1171.28	97282419.0	-1111.99
0311.20	12695.46897	1170.40	106082409.0	-1111.11
0312.08	14240.89776	1169.52	114882416.0	-1110.23
0312.94	14286.36851	1168.66	123682413.0	-1109.37
0313.80	13077.26530	1167.80	132482418.0	-1108.51
0314.71	11536.36626	1166.89	141282416.0	-1107.60
0315.62	11040.91411	1165.98	150082412.0	-1106.69
0316.52	10386.35419	1165.08	158882420.0	-1105.79
0317.38	9681.82808	1164.22	167682411.0	-1104.93
0318.23	9627.26945	1163.37	176482414.0	-1104.08
0319.10	9722.72948	1162.50	185282412.0	-1103.21
0319.98	9436.36364	1161.62	194082412.0	-1102.34
0320.83	9313.63531	1160.77	202882413.0	-1101.49
0321.69	9436.36578	1159.91	211682411.0	-1100.62
0322.60	9327.27591	1159.00	220482408.0	-1099.71
0323.53	9154.53713	1158.07	229282416.0	-1098.78
0324.45	9368.18927	1157.15	238082409.0	-1097.86
0325.33	9963.62504	1156.27	246882419.0	-1096.98
0326.19	10204.55125	1155.41	255682414.0	-1096.12
0327.07	10654.54303	1154.53	264482416.0	-1095.24
0327.93	10977.27647	1153.67	273282413.0	-1094.38
0328.80	11522.73251	1152.80	282082409.0	-1093.51
0329.67	12777.26982	1151.93	290882411.0	-1092.64
0330.59	12663.62773	1151.01	299682417.0	-1091.72
0331.51	12772.73888	1150.09	308482409.0	-1090.80
0332.39	11799.99866	1149.21	317282410.0	-1089.92
0333.24	11404.54416	1148.36	326082411.0	-1089.07
0334.12	11181.81183	1147.48	334882416.0	-1088.19
0334.99	10872.72604	1146.61	343682417.0	-1087.32
0335.85	10890.90785	1145.75	352482418.0	-1086.46
0336.70	10259.08741	1144.90	361282421.0	-1085.61
0337.58	10181.82975	1144.02	370082411.0	-1084.73
0338.51	10168.18413	1143.09	378882409.0	-1083.80
0339.42	10090.90565	1142.18	387682412.0	-1082.89
0340.31	9981.81478	1141.29	396482415.0	-1082.00
0341.16	9713.63305	1140.44	405282418.0	-1081.15
0342.05	10154.54776	1139.55	414082416.0	-1080.27
0342.93	10027.28070	1138.67	422882409.0	-1079.38
0343.79	9972.72387	1137.81	431682412.0	-1078.52
0344.63	10250.00000	1136.97	440482412.0	-1077.68
0345.51	9772.72727	1136.09	449282412.0	-1076.80
0346.44	9986.36137	1135.16	458082414.0	-1075.87
0347.34	9877.27385	1134.26	466882413.0	-1074.97
0348.21	9845.45455	1133.39	475682413.0	-1074.10
0349.07	9904.54208	1132.53	484482416.0	-1073.24
0349.92	9909.09204	1131.68	493282415.0	-1072.39
0350.80	10059.08862	1130.80	502082417.0	-1071.51
0351.66	10081.82620	1129.94	510882410.0	-1070.65
0352.51	10018.18068	1129.09	519682411.0	-1069.80
0353.41	9818.18070	1128.19	528482412.0	-1068.91
0354.35	9759.08315	1127.25	537282419.0	-1067.96
0355.27	9986.36704	1126.33	546082416.0	-1067.04
0356.16	9672.73277	1125.44	554882411.0	-1066.15
0357.02	9772.72172	1124.58	563682416.0	-1065.30
0357.89	9809.09760	1123.71	572482410.0	-1064.42
0358.76	9745.45455	1122.84	581282410.0	-1063.55
0359.64	9590.91127	1121.96	590082408.0	-1062.67
0360.51	9659.08323	1121.09	598882415.0	-1061.80
0361.41	9550.00434	1120.19	607682411.0	-1060.90
0362.33	10036.36364	1119.27	616482411.0	-1059.98
0363.23	9268.17971	1118.37	625282413.0	-1059.08
0364.11	9218.18287	1117.49	634082412.0	-1058.20
0364.95	9545.45780	1116.65	642882409.0	-1057.36
0365.82	9677.26723	1115.78	651682414.0	-1056.49
0366.70	9545.45129	1114.90	660482417.0	-1055.61
0367.55	8986.37181	1114.05	669282409.0	-1054.76
0368.42	9390.90269	1113.18	678082415.0	-1053.90
0369.32	9340.91015	1112.28	686882414.0	-1052.99
0370.24	9195.45873	1111.36	695682410.0	-1052.07
0371.14	9699.99780	1110.46	704482412.0	-1051.17
0372.02	9281.81713	1109.58	713282413.0	-1050.29
0372.89	9154.54649	1108.71	722082412.0	-1049.42
0373.77	9136.36364	1107.83	730882412.0	-1048.54
0374.63	9081.82025	1106.97	739682410.0	-1047.68
0375.49	9027.26862	1106.11	748482414.0	-1046.82
0376.35	9313.63531	1105.25	757282415.0	-1045.96
0377.26	9286.36680	1104.34	766082412.0	-1045.05
0378.18	9181.81818	1103.42	774882412.0	-1044.13
0379.07	8927.27171	1102.53	783682413.0	-1043.24
0379.94	8845.45052	1101.66	792482417.0	-1042.38
0380.79	8709.09883	1100.81	801282409.0	-1041.52
0381.67	8936.35247	1099.93	810082420.0	-1040.64
0382.53	8781.82018	1099.07	818882418.0	-1039.78
0383.38	8572.73214	1098.22	827682413.0	-1038.93
0384.24	8877.27273	1097.36	836482413.0	-1038.07
0385.16	8604.55034	1096.44	845282408.0	-1037.15
0386.09	8754.53551	1095.51	854082418.0	-1036.22
0386.99	8600.00293	1094.61	862882415.0	-1035.32
0387.86	8299.99906	1093.74	871682416.0	-1034.45
0388.73	8763.64333	1092.87	880482409.0	-1033.58
0389.62	8286.35610	1091.98	889282417.0	-1032.69
0390.50	8300.00189	1091.10	898082415.0	-1031.81
0391.34	8309.09469	1090.26	906882411.0	-1030.97
0392.21	8377.27178	1089.39	915682412.0	-1030.10
0393.13	8386.36078	1088.47	924482415.0	-1029.18
0394.06	8422.72632	1087.54	933282416.0	-1028.26
0394.94	8222.73194	1086.66	942082411.0	-1027.37
0395.80	8404.53972	1085.80	950882417.0	-1026.51
0396.63	8186.36922	1084.97	959682411.0	-1025.68
0397.51	8013.63363	1084.09	968482414.0	-1024.80
0398.39	8309.08996	1083.21	977282415.0	-1023.92
0399.24	8059.09457	1082.36	986082411.0	-1023.07
0400.11	8168.18089	1081.49	994882412.0	-1022.20
0401.01	8018.18364	1080.59	1003682410.0	-1021.30
0401.93	8531.81527	1079.67	1012482413.0	-1020.38
0402.83	7854.54545	1078.77	1021282413.0	-1019.48
0403.70	8004.54454	1077.90	1030082414.0	-1018.61
0404.57	7845.48932	1077.03	1038882375.0	-1017.74
0405.44	7909.05586	1076.16	1047682414.0	-1016.87
0406.30	7654.54719	1075.30	1056482412.0	-1016.01
0407.17	7877.26646	1074.43	1065282419.0	-1015.14
0408.04	8104.55374	1073.56	1074082410.0	-1014.27
0408.94	8245.44986	1072.66	1082882415.0	-1013.37
0409.85	7631.81905	1071.75	1091682414.0	-1012.46
0410.74	8009.08818	1070.86	1100482417.0	-1011.57
0411.60	8009.09546	1070.00	1109282412.0	-1010.71
0412.45	7813.63459	1069.15	1118082414.0	-1009.86
0413.31	7854.54635	1068.29	1126882413.0	-1009.00
0414.17	7809.09091	1067.43	1135682413.0	-1008.14
0415.03	7549.99571	1066.57	1144482418.0	-1007.29
0415.92	7700.01050	1065.68	1153282406.0	-1006.39
0416.87	7490.89888	1064.73	1162082418.0	-1005.44
0417.81	7727.27887	1063.79	1170882411.0	-1004.50
0418.72	7468.17927	1062.88	1179682414.0	-1003.59
0419.57	7777.27361	1062.03	1188482413.0	-1002.74
0420.44	7354.54545	1061.16	1197282413.0	-1001.87
0421.33	7240.91074	1060.27	1206082411.0	-1000.98
0422.20	7563.63722	1059.40	1214882410.0	-1000.11
0423.06	7472.72388	1058.54	1223682414.0	-0999.25
0423.96	7404.54545	1057.64	1232482414.0	-0998.35
0424.89	7481.81308	1056.71	1241282420.0	-0997.42
0425.79	7072.73129	1055.81	1250082415.0	-0996.52
0426.67	7100.00323	1054.93	1258882411.0	-0995.64
0427.53	7236.36364	1054.07	1267682411.0	-0994.78
0428.40	7213.63554	1053.20	1276482412.0	-0993.91
0429.27	7413.63636	1052.33	1285282412.0	-0993.04
0430.15	7086.35961	1051.45	1294082417.0	-0992.16
0430.99	7159.09416	1050.61	1302882413.0	-0991.32
0431.90	6972.72807	1049.70	1311682412.0	-0990.41
0432.83	7268.18099	1048.77	1320482413.0	-0989.48
0433.74	7099.99758	1047.86	1329282416.0	-0988.57
0434.61	6727.27426	1046.99	1338082414.0	-0987.70
0435.46	7036.36604	1046.14	1346882411.0	-0986.85
0436.35	7013.63557	1045.25	1355682412.0	-0985.96
0437.24	6931.81818	1044.36	1364482412.0	-0985.07
0438.10	7145.45536	1043.50	1373282411.0	-0984.21
0438.96	6886.36129	1042.64	1382082414.0	-0983.35
0439.86	7127.27435	1041.74	1390882412.0	-0982.46
0440.78	7004.54466	1040.82	1399682413.0	-0981.53
0441.68	6745.45378	1039.92	1408482414.0	-0980.63
0442.55	6777.27273	1039.05	1417282414.0	-0979.76
0443.40	6863.63714	1038.20	1426082413.0	-0978.91
0444.27	6745.45914	1037.33	1434882407.0	-0978.04
0445.14	6627.26971	1036.46	1443682411.0	-0977.17
0446.00	6877.27351	1035.60	1452482410.0	-0976.31
0446.85	7081.81416	1034.75	1461282415.0	-0975.46
0447.75	6900.00078	1033.85	1470082414.0	-0974.56
0448.69	6986.44223	1032.91	1478882315.0	-0973.62
0449.60	6590.83195	1032.00	1487682418.0	-0972.71
0450.48	6677.27728	1031.12	1496482412.0	-0971.83
0451.35	6472.72801	1030.25	1505282411.0	-0970.96
0452.24	6363.63275	1029.36	1514082416.0	-0970.07
0453.11	6418.18474	1028.49	1522882412.0	-0969.20
0453.97	6359.09163	1027.63	1531682411.0	-0968.34
0454.83	6299.99427	1026.77	1540482419.0	-0967.48
0455.75	6654.55377	1025.85	1549282408.0	-0966.56
0456.66	6481.81376	1024.94	1558082414.0	-0965.65
0457.56	6200.00141	1024.04	1566882412.0	-0964.75
0458.43	6190.90487	1023.17	1575682418.0	-0963.88
0459.29	6231.82385	1022.31	1584482410.0	-0963.02
0460.16	6386.36218	1021.44	1593282412.0	-0962.15
0461.03	6318.18110	1020.57	1602082413.0	-0961.28
0461.89	6336.36508	1019.71	1610882411.0	-0960.42
0462.74	6181.81397	1018.86	1619682417.0	-0959.57
0463.66	6504.54989	1017.94	1628482411.0	-0958.65
0464.59	6131.81818	1017.01	1637282411.0	-0957.72
0465.49	6472.72654	1016.11	1646082412.0	-0956.82
0466.35	6309.09019	1015.25	1654882413.0	-0955.96
0467.22	6481.81745	1014.38	1663682414.0	-0955.09
0468.10	6204.54475	1013.50	1672482415.0	-0954.21
0468.96	6309.08876	1012.64	1681282418.0	-0953.35
0469.82	6368.18109	1011.78	1690082419.0	-0952.49
0470.69	6059.09435	1010.91	1698882414.0	-0951.62
0471.61	5945.45792	1009.99	1707682409.0	-0950.70
0472.51	5963.63433	1009.09	1716482412.0	-0949.80
0473.39	6036.36021	1008.21	1725282417.0	-0948.92
0474.25	6054.55027	1007.35	1734082410.0	-0948.06
0475.11	6131.81679	1006.49	1742882412.0	-0947.20
0475.99	5918.18316	1005.61	1751682410.0	-0946.32
0476.85	5936.35891	1004.75	1760482417.0	-0945.46
0477.69	5890.90909	1003.91	1769282417.0	-0944.62
0478.56	5663.67948	1003.04	1778082350.0	-0943.76
0479.49	5759.04641	1002.11	1786882418.0	-0942.82
0480.43	5909.09225	1001.17	1795682416.0	-0941.88
0481.34	5795.45850	1000.26	1804482410.0	-0940.97
0482.20	5990.90909	0999.40	1813282410.0	-0940.11
0483.07	5422.72234	0998.53	1822082418.0	-0939.24
0483.95	5645.45968	0997.65	1830882410.0	-0938.36
0484.83	5636.36300	0996.77	1839682411.0	-0937.48
0485.69	5740.90452	0995.91	1848482418.0	-0936.62
0486.57	5845.45654	0995.03	1857282415.0	-0935.74
0487.49	5477.27646	0994.11	1866082409.0	-0934.82
0488.40	5627.27017	0993.20	1874882413.0	-0933.91
0489.29	5381.81940	0992.31	1883682411.0	-0933.02
0490.15	5677.27144	0991.45	1892482413.0	-0932.16
0491.00	5372.73216	0990.60	1901282405.0	-0931.31
0491.89	5390.90419	0989.71	1910082413.0	-0930.43
0492.76	5609.08900	0988.84	1918882416.0	-0929.55
0493.62	5459.09401	0987.98	1927682411.0	-0928.69
0494.50	5599.99618	0987.10	1936482417.0	-0927.81
0495.37	5663.63894	0986.23	1945282413.0	-0926.94
0496.27	5359.09091	0985.33	1954082413.0	-0926.04
0497.16	5595.45327	0984.44	1962882415.0	-0925.16
0498.02	5536.36238	0983.58	1971682417.0	-0924.29
0498.89	5440.91156	0982.71	1980482413.0	-0923.42
0499.77	5249.99940	0981.83	1989282414.0	-0922.54
0500.63	5459.09463	0980.97	1998082408.0	-0921.69
0501.49	5690.90650	0980.11	2006882412.0	-0920.82
0502.39	5299.99940	0979.21	2015682413.0	-0919.92
0503.30	5281.82118	0978.30	2024482408.0	-0919.01
0504.20	5368.17633	0977.40	2033282417.0	-0918.11
0505.07	5304.54787	0976.53	2042082413.0	-0917.24
0505.93	5663.63636	0975.67	2050882413.0	-0916.38
0506.80	5381.81940	0974.80	2059682411.0	-0915.51
0507.67	5677.26950	0973.93	2068482416.0	-0914.64
0508.53	6495.45750	0973.07	2077282412.0	-0913.78
0509.39	6904.58233	0972.21	2086082365.0	-0912.93
0510.28	6940.86887	0971.32	2094882416.0	-0912.03
0511.21	6081.81887	0970.39	2103682415.0	-0911.10
0512.12	5554.54293	0969.48	2112482419.0	-0910.19
0513.00	5545.45833	0968.60	2121282413.0	-0909.31
0513.87	5477.27210	0967.73	2130082414.0	-0908.44
0514.75	5300.00181	0966.85	2138882411.0	-0907.56
0515.64	5318.18182	0965.96	2147682411.0	-0906.68
0516.49	5149.99824	0965.11	2156482414.0	-0905.82
0517.35	5522.72727	0964.25	2165282414.0	-0904.96
0518.26	5249.99761	0963.34	2174082418.0	-0904.05
0519.18	5627.27529	0962.42	2182882414.0	-0903.13
0520.09	5318.18242	0961.51	2191682413.0	-0902.22
0520.94	5404.54361	0960.66	2200482416.0	-0901.37
0521.80	6009.08749	0959.80	2209282421.0	-0900.51
0522.67	6100.00347	0958.93	2218082416.0	-0899.64
0523.55	6013.63910	0958.05	2226882412.0	-0898.77
0524.40	5722.72532	0957.20	2235682415.0	-0897.91
0525.25	6286.36435	0956.35	2244482414.0	-0897.06
0526.16	5845.45521	0955.44	2253282413.0	-0896.15
0527.09	6022.72454	0954.51	2262082417.0	-0895.22
0528.00	5490.91346	0953.60	2270882410.0	-0894.31
0528.86	5540.91098	0952.74	2279682407.0	-0893.45
0529.72	5381.81451	0951.88	2288482413.0	-0892.59
0530.60	5586.36364	0951.00	2297282413.0	-0891.71
0531.47	5395.45393	0950.13	2306082414.0	-0890.84
0532.33	5350.00061	0949.27	2314882413.0	-0889.98
0533.19	5554.54356	0948.41	2323682416.0	-0889.12
0534.09	5249.99881	0947.51	2332482418.0	-0888.22
0535.01	5454.54607	0946.59	2341282417.0	-0887.30
0535.89	5409.09460	0945.71	2350082411.0	-0886.42
0536.76	5522.72476	0944.84	2358882415.0	-0885.55
0537.61	5513.63636	0943.99	2367682415.0	-0884.70
0538.48	5272.73027	0943.12	2376482410.0	-0883.83
0539.35	5040.90737	0942.25	2385282413.0	-0882.96
0540.20	5440.93382	0941.40	2394082373.0	-0882.11
0541.07	5386.34038	0940.53	2402882411.0	-0881.24
0542.01	5131.81410	0939.59	2411682418.0	-0880.30
0542.95	5154.54663	0938.65	2420482416.0	-0879.36
0543.86	5240.91147	0937.74	2429282412.0	-0878.45
0544.73	5445.45083	0936.87	2438082418.0	-0877.58
0545.60	5613.63955	0936.00	2446882413.0	-0876.71
0546.47	5368.17999	0935.13	2455682416.0	-0875.84
0547.33	5381.81879	0934.27	2464482415.0	-0874.98
0548.20	5386.36180	0933.40	2473282418.0	-0874.11
0549.09	5231.82175	0932.51	2482082412.0	-0873.23
0550.02	5059.08688	0931.58	2490882419.0	-0872.30
0550.92	5018.18524	0930.68	2499682413.0	-0871.39
0551.80	5509.09216	0929.80	2508482411.0	-0870.51
0552.67	5390.90909	0928.93	2517282411.0	-0869.64
0553.53	5072.72497	0928.07	2526082415.0	-0868.78
0554.41	5068.18412	0927.19	2534882411.0	-0867.90
0555.28	4790.90746	0926.32	2543682414.0	-0867.03
0556.13	5036.36478	0925.47	2552482412.0	-0866.18
0557.02	4977.27499	0924.58	2561282408.0	-0865.30
0557.94	4949.99606	0923.66	2570082415.0	-0864.37
0558.86	5090.91025	0922.74	2578882413.0	-0863.45
0559.74	4981.81648	0921.86	2587682416.0	-0862.57
0560.60	4904.54601	0921.00	2596482415.0	-0861.71
0561.48	4959.08978	0920.12	2605282417.0	-0860.83
0562.36	4677.27485	0919.24	2614082413.0	-0859.95
0563.23	5068.18067	0918.37	2622882415.0	-0859.08
0564.08	5031.81933	0917.52	2631682413.0	-0858.23
0564.96	4595.45663	0916.64	2640482409.0	-0857.35
0565.89	4881.84037	0915.71	2649282369.0	-0856.42
0566.80	4968.15867	0914.80	2658082410.0	-0855.51
0567.67	4686.35991	0913.93	2666882417.0	-0854.64
0568.52	4977.27329	0913.08	2675682416.0	-0853.79
0569.39	4540.91115	0912.21	2684482412.0	-0852.92
0570.26	5177.27273	0911.34	2693282412.0	-0852.05
0571.12	5031.81647	0910.48	2702082415.0	-0851.19
0571.97	4936.36532	0909.63	2710882412.0	-0850.34
0572.86	4959.09147	0908.74	2719682411.0	-0849.45
0573.80	4695.45348	0907.80	2728482413.0	-0848.51
0574.72	4654.54545	0906.88	2737282413.0	-0847.59
0575.60	4527.27479	0906.00	2746082409.0	-0846.71
0576.47	4968.17900	0905.13	2754882414.0	-0845.84
0577.35	4481.81665	0904.25	2763682417.0	-0844.96
0578.23	4381.82017	0903.37	2772482413.0	-0844.08
0579.10	4554.54597	0902.50	2781282412.0	-0843.21
0579.95	4818.18072	0901.65	2790082414.0	-0842.36
0580.84	4872.72672	0900.76	2798882415.0	-0841.47
0581.77	4777.26947	0899.83	2807682421.0	-0840.54
0582.68	4395.45604	0898.92	2816482418.0	-0839.64
0583.55	4272.73067	0898.05	2825282411.0	-0838.76
0584.41	4668.18129	0897.19	2834082412.0	-0837.90
0585.27	4527.27427	0896.33	2842882409.0	-0837.04
0586.15	4486.36007	0895.45	2851682416.0	-0836.16
0587.01	4318.18280	0894.59	2860482414.0	-0835.30
0587.87	4731.82033	0893.73	2869282410.0	-0834.44
0588.77	4490.90807	0892.83	2878082412.0	-0833.54
0589.68	4563.63636	0891.92	2886882412.0	-0832.63
0590.59	4240.90620	0891.01	2895682418.0	-0831.73
0591.47	4463.63941	0890.13	2904482412.0	-0830.84
0592.34	4427.27424	0889.26	2913282409.0	-0829.97
0593.22	4345.45257	0888.38	2922082413.0	-0829.09
0594.08	4459.09091	0887.52	2930882413.0	-0828.23
0594.94	4313.63538	0886.66	2939682415.0	-0827.37
0595.80	4213.63876	0885.80	2948482410.0	-0826.51
0596.70	4254.54304	0884.90	2957282415.0	-0825.61
0597.63	4227.27417	0883.97	2966082412.0	-0824.69
0598.51	4377.27322	0883.09	2974882411.0	-0823.80
0599.37	4004.54545	0882.23	2983682411.0	-0822.94
0600.22	4186.36316	0881.38	2992482412.0	-0822.09
0601.10	4395.45455	0880.50	3001282412.0	-0821.21
0601.96	4386.36164	0879.64	3010082416.0	-0820.35
0602.81	4095.45315	0878.79	3018882419.0	-0819.50
0603.67	4145.45831	0877.93	3027682411.0	-0818.64
0604.59	4127.27367	0877.01	3036482409.0	-0817.72
0605.52	4322.72187	0876.08	3045282420.0	-0816.79
0606.44	4095.45780	0875.16	3054082413.0	-0815.87
0607.31	4204.54354	0874.29	3062882417.0	-0815.00
0608.18	4527.27479	0873.42	3071682413.0	-0814.13
0609.06	4427.27373	0872.54	3080482411.0	-0813.25
0609.94	4368.18132	0871.66	3089282412.0	-0812.37
0610.81	4027.27227	0870.79	3098082413.0	-0811.50
0611.66	3963.63681	0869.94	3106882412.0	-0810.65
0612.58	4186.36316	0869.02	3115682413.0	-0809.73
0613.51	4154.54923	0868.09	3124482405.0	-0808.80
0614.41	3913.63370	0867.19	3133282411.0	-0807.90
0615.26	4109.08811	0866.34	3142082417.0	-0807.05
0616.13	4186.36601	0865.47	3150882412.0	-0806.19
0617.00	4099.99860	0864.60	3159682415.0	-0805.31
0617.87	4100.00140	0863.73	3168482412.0	-0804.44
0618.73	4027.27227	0862.87	3177282413.0	-0803.58
0619.58	4077.27319	0862.02	3186082412.0	-0802.73
0620.50	4386.36364	0861.10	3194882412.0	-0801.81
0621.43	3886.36099	0860.17	3203682418.0	-0800.88
0622.32	4172.72870	0859.28	3212482415.0	-0799.99
0623.19	3936.36587	0858.41	3221282410.0	-0799.12
0624.06	4318.17789	0857.54	3230082418.0	-0798.25
0624.95	3950.00180	0856.65	3238882414.0	-0797.37
0625.81	4081.81957	0855.79	3247682411.0	-0796.50
0626.66	3904.54634	0854.94	3256482409.0	-0795.65
0627.53	3918.18048	0854.07	3265282412.0	-0794.78
0628.44	3913.63547	0853.16	3274082414.0	-0793.87
0629.35	4245.45551	0852.25	3282882412.0	-0792.96
0630.23	3895.45322	0851.37	3291682415.0	-0792.08
0631.10	3881.81818	0850.50	3300482415.0	-0791.21
0631.96	3804.54589	0849.64	3309282414.0	-0790.35
0632.82	3763.63722	0848.78	3318082412.0	-0789.49
0633.69	4054.55144	0847.91	3326882399.0	-0788.62
0634.53	3595.44597	0847.07	3335682420.0	-0787.78
0635.42	3768.18482	0846.18	3344482413.0	-0786.89
0636.35	3818.17965	0845.25	3353282418.0	-0785.96
0637.27	3740.91419	0844.33	3362082406.0	-0785.04
0638.17	3781.81517	0843.43	3370882413.0	-0784.14
0639.04	3990.91090	0842.56	3379682409.0	-0783.27
0639.92	3795.45196	0841.68	3388482415.0	-0782.39
0640.80	3872.72727	0840.80	3397282415.0	-0781.51
0641.65	3872.72991	0839.95	3406082409.0	-0780.66
0642.51	3754.54332	0839.09	3414882414.0	-0779.80
0643.41	3609.08886	0838.19	3423682419.0	-0778.91
0644.33	3727.27442	0837.27	3432482415.0	-0777.98
0645.22	3522.72727	0836.38	3441282415.0	-0777.09
0646.09	3613.63801	0835.51	3450082411.0	-0776.22
0646.95	3772.72556	0834.65	3458882415.0	-0775.36
0647.83	3518.18102	0833.77	3467682417.0	-0774.48
0648.71	3640.91157	0832.89	3476482411.0	-0773.60
0649.56	3649.99876	0832.04	3485282414.0	-0772.75
0650.40	3781.82033	0831.20	3494082409.0	-0771.91
0651.30	3745.45412	0830.30	3502882410.0	-0771.01
0652.23	3627.27232	0829.37	3511682411.0	-0770.08
0653.13	3422.72611	0828.47	3520482414.0	-0769.18
0654.01	3390.90948	0827.59	3529282413.0	-0768.30
0654.87	3609.09132	0826.73	3538082412.0	-0767.45
0655.74	3659.08800	0825.86	3546882419.0	-0766.57
0656.62	3759.09176	0824.98	3555682417.0	-0765.69
0657.49	3604.54545	0824.11	3564482417.0	-0764.82
0658.33	3300.00938	0823.27	3573282392.0	-0763.98
0659.23	3622.71904	0822.37	3582082412.0	-0763.09
0660.15	3563.63353	0821.45	3590882419.0	-0762.16
0661.04	3604.54791	0820.56	3599682413.0	-0761.27
0661.91	3422.72572	0819.69	3608482417.0	-0760.41
0662.76	3263.63785	0818.84	3617282413.0	-0759.56
0663.62	3413.63675	0817.98	3626082412.0	-0758.69
0664.49	3559.09010	0817.11	3634882414.0	-0757.82
0665.35	3545.45656	0816.25	3643682409.0	-0756.96
0666.20	3572.72727	0815.40	3652482409.0	-0756.11
0667.12	3386.36248	0814.48	3661282412.0	-0755.19
0668.08	3609.08886	0813.52	3670082417.0	-0754.23
0669.00	3463.63754	0812.60	3678882414.0	-0753.31
0669.88	3586.36649	0811.72	3687682407.0	-0752.43
0670.74	3440.90753	0810.86	3696482411.0	-0751.57
0671.61	3263.63599	0809.99	3705282412.0	-0750.70
0672.49	3368.17990	0809.11	3714082417.0	-0749.82
0673.35	3340.91137	0808.25	3722882411.0	-0748.96
0674.23	3245.45418	0807.37	3731682412.0	-0748.08
0675.13	3250.00000	0806.47	3740482412.0	-0747.18
0676.05	3249.99889	0805.55	3749282415.0	-0746.26
0676.94	3454.54428	0804.66	3758082418.0	-0745.37
0677.82	3159.09306	0803.78	3766882412.0	-0744.49
0678.68	3218.18182	0802.92	3775682412.0	-0743.63
0679.56	3372.72766	0802.04	3784482411.0	-0742.75
0680.42	3131.81818	0801.18	3793282411.0	-0741.89
0681.28	3136.36185	0800.32	3802082416.0	-0741.03
0682.15	3245.45565	0799.45	3810882413.0	-0740.17
0683.07	3227.27273	0798.53	3819682413.0	-0739.24
0683.99	3204.54545	0797.61	3828482413.0	-0738.32
0684.89	3118.18253	0796.71	3837282411.0	-0737.42
0685.76	3399.99845	0795.84	3846082415.0	-0736.55
0686.63	3031.81887	0794.97	3854882413.0	-0735.68
0687.51	3186.36508	0794.09	3863682409.0	-0734.80
0688.37	3300.00000	0793.23	3872482409.0	-0733.94
0689.24	3018.17873	0792.36	3881282418.0	-0733.07
0690.10	3281.81893	0791.50	3890082416.0	-0732.21
0691.02	3059.09195	0790.58	3898882413.0	-0731.29
0691.95	3168.18110	0789.65	3907682415.0	-0730.36
0692.80	3350.00228	0788.80	3916482409.0	-0729.51
0693.62	3131.81569	0787.98	3925282416.0	-0728.69
0694.48	3404.54623	0787.12	3934082414.0	-0727.83
0695.35	3177.27345	0786.25	3942882412.0	-0726.96
0696.23	3013.63602	0785.37	3951682413.0	-0726.08
0697.07	3090.90733	0784.53	3960482418.0	-0725.24
0697.94	3040.91082	0783.66	3969282413.0	-0724.37
0698.87	3045.45420	0782.73	3978082414.0	-0723.44
0699.79	3077.27413	0781.81	3986882410.0	-0722.52
0700.69	3290.91059	0780.91	3995682406.0	-0721.62
0701.56	2904.54347	0780.04	4004482412.0	-0720.75
0702.43	2913.63537	0779.17	4013282415.0	-0719.88
0703.32	3100.00035	0778.28	4022082414.0	-0718.99
0704.18	3018.18113	0777.42	4030882416.0	-0718.13
0705.05	3309.09166	0776.55	4039682414.0	-0717.27
0705.92	3009.09125	0775.68	4048482413.0	-0716.39
0706.85	3349.99924	0774.75	4057282415.0	-0715.46
0707.77	2740.90847	0773.83	4066082417.0	-0714.54
0708.65	2781.81755	0772.95	4074882419.0	-0713.66
0709.50	2940.91210	0772.10	4083682410.0	-0712.81
0710.35	3004.54375	0771.25	4092482415.0	-0711.96
0711.23	2850.00162	0770.37	4101282410.0	-0711.08
0712.10	2790.90877	0769.50	4110082411.0	-0710.21
0712.96	2986.36398	0768.64	4118882410.0	-0709.35
0713.84	3081.81748	0767.76	4127682412.0	-0708.47
0714.76	2881.81818	0766.84	4136482412.0	-0707.55
0715.67	2981.81784	0765.93	4145282413.0	-0706.64
0716.56	2772.72696	0765.04	4154082414.0	-0705.75
0717.42	2904.54512	0764.18	4162882415.0	-0704.89
0718.30	3040.91013	0763.30	4171682412.0	-0704.01
0719.18	2986.36296	0762.42	4180482414.0	-0703.13
0720.04	2922.72694	0761.56	4189282415.0	-0702.28
0720.89	2836.36364	0760.71	4198082415.0	-0701.42
0721.78	3018.18148	0759.82	4206882416.0	-0700.53
0722.70	2659.09182	0758.90	4215682413.0	-0699.61
0723.60	2809.09091	0758.00	4224482413.0	-0698.71
0724.47	2909.09190	0757.13	4233282410.0	-0697.84
0725.32	2781.81723	0756.28	4242082413.0	-0696.99
0726.19	2768.18465	0755.41	4250882404.0	-0696.12
0727.06	2868.17856	0754.54	4259682414.0	-0695.25
0727.91	2727.27335	0753.69	4268482412.0	-0694.40
0728.77	2822.72695	0752.83	4277282413.0	-0693.54
0729.68	2863.63506	0751.92	4286082417.0	-0692.63
0730.61	2609.09269	0750.99	4294882411.0	-0691.70
0731.53	-5.44076	0750.07	8715124.0	-0690.78
0732.41	2877.27436	0749.19	17515119.0	-0689.90
0733.27	2686.36516	0748.33	26315114.0	-0689.04
0734.16	2809.09059	0747.44	35115115.0	-0688.15
0735.03	2790.90877	0746.57	43915116.0	-0687.28
0735.90	2686.36242	0745.70	52715120.0	-0686.41
0736.76	2786.36427	0744.84	61515118.0	-0685.55
0737.67	2677.27334	0743.93	70315116.0	-0684.64
0738.60	2822.72663	0743.00	79115118.0	-0683.71
0739.49	2850.00130	0742.11	87915114.0	-0682.82
0740.35	2940.90876	0741.25	96715115.0	-0681.96
0741.21	2713.63575	0740.39	105515117.0	-0681.10
0742.09	3104.54581	0739.51	114315116.0	-0680.22
0742.97	2545.45426	0738.63	123115117.0	-0679.34
0743.82	2645.45394	0737.78	131915119.0	-0678.49
0744.68	2736.36395	0736.92	140715118.0	-0677.63
0745.59	2700.00000	0736.01	149515118.0	-0676.72
0746.51	2745.45455	0735.09	158315118.0	-0675.80
0747.41	2799.99905	0734.19	167115121.0	-0674.90
0748.28	2613.63755	0733.32	175915117.0	-0674.03
0749.14	2618.18212	0732.46	184715116.0	-0673.17
0750.03	2781.81692	0731.57	193515120.0	-0672.28
0750.90	2727.27335	0730.70	202315118.0	-0671.41
0751.76	2790.90814	0729.84	211115121.0	-0670.55
0752.63	2813.63796	0728.97	219915116.0	-0669.68
0753.53	2818.17990	0728.07	228715122.0	-0668.78
0754.45	2604.54841	0727.15	237515112.0	-0667.86
0755.35	2699.99724	0726.25	246315121.0	-0666.96
0756.21	2672.72879	0725.39	255115116.0	-0666.11
0757.06	2786.36395	0724.54	263915115.0	-0665.25
0757.93	2345.45375	0723.67	272715118.0	-0664.38
0758.80	2540.90822	0722.80	281515121.0	-0663.51
0759.65	2540.90967	0721.95	290315119.0	-0662.66
0760.52	2522.72899	0721.08	299115113.0	-0661.79
0761.44	2522.72469	0720.16	307915122.0	-0660.87
0762.36	2695.45638	0719.24	316715116.0	-0659.95
0763.27	2568.18094	0718.33	325515119.0	-0659.04
0764.14	2600.00148	0717.46	334315114.0	-0658.17
0765.02	2504.54432	0716.58	343115118.0	-0657.29
0765.89	2513.63551	0715.71	351915121.0	-0656.42
0766.77	2431.81708	0714.83	360715125.0	-0655.54
0767.63	2577.27595	0713.97	369515114.0	-0654.68
0768.50	2413.63554	0713.10	378315117.0	-0653.81
0769.42	2722.72604	0712.18	387115121.0	-0652.89
0770.32	2500.00170	0711.28	395915115.0	-0651.99
0771.20	2581.81642	0710.40	404715121.0	-0651.11
0772.07	2545.45570	0709.53	413515117.0	-0650.24
0772.94	2559.09004	0708.66	422315120.0	-0649.37
0773.82	2718.20591	0707.78	431115042.0	-0648.49
0774.68	2495.43328	0706.92	439915117.0	-0647.63
0775.53	2454.54518	0706.07	448715118.0	-0646.78
0776.40	2331.81845	0705.20	457515117.0	-0645.91
0777.32	2663.63546	0704.28	466315120.0	-0644.99
0778.24	2377.27354	0703.36	475115117.0	-0644.07
0779.12	2231.81767	0702.48	483915119.0	-0643.19
0779.98	2468.18238	0701.62	492715117.0	-0642.34
0780.86	2431.81625	0700.74	501515124.0	-0641.45
0781.75	2231.81996	0699.85	510315117.0	-0640.56
0782.62	2613.63785	0698.98	519115112.0	-0639.69
0783.46	2390.90800	0698.14	527915116.0	-0638.85
0784.34	2422.72700	0697.26	536715117.0	-0637.98
0785.26	2204.54621	0696.34	545515114.0	-0637.05
0786.16	2436.36198	0695.44	554315120.0	-0636.15
0787.03	2531.81847	0694.57	563115119.0	-0635.28
0787.89	2386.36553	0693.71	571915112.0	-0634.43
0788.75	2486.36166	0692.85	580715119.0	-0633.56
0789.63	2327.27167	0691.97	589515123.0	-0632.68
0790.48	2272.72882	0691.12	598315117.0	-0631.83
0791.33	2245.45429	0690.27	607115118.0	-0630.98
0792.22	2345.45428	0689.38	615915119.0	-0630.09
0793.17	2254.54520	0688.43	624715120.0	-0629.14
0794.10	2140.91104	0687.50	633515112.0	-0628.21
0794.99	2199.99875	0686.61	642315117.0	-0627.32
0795.85	2218.18232	0685.75	651115115.0	-0626.46
0796.72	2259.09065	0684.88	659915116.0	-0625.59
0797.59	2422.72782	0684.01	668715114.0	-0624.72
0798.47	2281.81740	0683.13	677515117.0	-0623.84
0799.34	2149.99853	0682.26	686315123.0	-0622.97
0800.23	2300.00026	0681.37	695115122.0	-0622.08
0801.16	2277.27376	0680.44	703915118.0	-0621.15
0802.06	2136.36364	0679.54	712715118.0	-0620.25
0802.94	2245.45480	0678.66	721515117.0	-0619.37
0803.80	2268.18208	0677.80	730315116.0	-0618.51
0804.66	2231.81742	0676.94	739115119.0	-0617.65
0805.53	2277.27376	0676.07	747915115.0	-0616.78
0806.40	2231.81691	0675.20	756715120.0	-0615.91
0807.26	2218.18232	0674.34	765515118.0	-0615.06
0808.16	2068.18205	0673.44	774315117.0	-0614.15
0809.08	2131.81770	0672.52	783115119.0	-0613.23
0809.98	2354.54679	0671.62	791915114.0	-0612.34
0810.86	2181.81818	0670.74	800715114.0	-0611.45
0811.73	2127.27079	0669.87	809515122.0	-0610.58
0812.61	2327.27484	0668.99	818315114.0	-0609.70
0813.49	2090.90909	0668.11	827115114.0	-0608.83
0814.33	2145.45308	0667.27	835915120.0	-0607.98
0815.20	2304.54519	0666.40	844715121.0	-0607.11
0816.11	2054.54615	0665.49	853515118.0	-0606.20
0817.03	2240.90884	0664.57	862315119.0	-0605.28
0817.92	2113.65702	0663.68	871115033.0	-0604.39
0818.79	2281.79562	0662.81	879915120.0	-0603.52
0819.64	2168.18182	0661.96	888715120.0	-0602.67
0820.51	2113.63708	0661.09	897515117.0	-0601.80
0821.39	2059.09044	0660.21	906315119.0	-0600.92
0822.23	2186.36314	0659.37	915115121.0	-0600.08
0823.10	2213.63611	0658.50	923915122.0	-0599.22
0824.01	2190.93100	0657.59	932715034.0	-0598.30
0824.95	2095.43550	0656.65	941515114.0	-0597.37
0825.85	2122.72679	0655.75	950315116.0	-0596.46
0826.72	2209.09016	0654.88	959115119.0	-0595.59
0827.59	2177.27372	0654.01	967915115.0	-0594.72
0828.47	2136.36267	0653.13	976715119.0	-0593.84
0829.35	2149.99951	0652.25	985515121.0	-0592.97
0830.21	2068.18182	0651.39	994315121.0	-0592.10
0831.07	2131.81867	0650.53	1003115119.0	-0591.24
0831.99	2136.36436	0649.61	1011915116.0	-0590.32
0832.92	2077.27131	0648.68	1020715122.0	-0589.39
0833.81	2154.54594	0647.79	1029515120.0	-0588.50
0834.66	2140.91031	0646.94	1038315115.0	-0587.65
0835.52	2077.27202	0646.08	1047115118.0	-0586.79
0836.40	1813.63554	0645.20	1055915122.0	-0585.91
0837.26	2068.18323	0644.34	1064715116.0	-0585.05
0838.11	2049.99814	0643.49	1073515124.0	-0584.20
0838.98	2090.91218	0642.62	1082315111.0	-0583.33
0839.90	1959.08913	0641.70	1091115119.0	-0582.41
0840.82	2072.72798	0640.78	1099915116.0	-0581.49
0841.71	2031.81911	0639.89	1108715112.0	-0580.60
0842.57	2036.36225	0639.03	1117515118.0	-0579.74
0843.43	2081.81913	0638.17	1126315114.0	-0578.88
0844.31	1949.99956	0637.29	1135115116.0	-0578.00
0845.18	2190.90959	0636.42	1143915114.0	-0577.13
0846.05	2004.54477	0635.55	1152715117.0	-0576.26
0846.92	2068.18135	0634.68	1161515119.0	-0575.39
0847.84	2227.27273	0633.76	1170315119.0	-0574.47
0848.74	2154.54594	0632.86	1179115117.0	-0573.57
0849.62	1868.18203	0631.98	1187915116.0	-0572.69
0850.48	2022.72704	0631.12	1196715117.0	-0571.83
0851.34	1849.99979	0630.26	1205515118.0	-0570.97
0852.21	1949.99956	0629.39	1214315120.0	-0570.10
0853.08	1795.45414	0628.52	1223115122.0	-0569.24
0853.92	1840.90993	0627.68	1231915118.0	-0568.39
0854.81	1904.54545	0626.79	1240715118.0	-0567.50
0855.75	2200.00100	0625.85	1249515114.0	-0566.56
0856.66	2190.90909	0624.94	1258315114.0	-0565.65
0857.55	2081.81795	0624.05	1267115115.0	-0564.76
0858.42	1900.00022	0623.18	1275915114.0	-0563.89
0859.30	1963.63636	0622.30	1284715114.0	-0563.01
0860.17	1977.27115	0621.43	1293515121.0	-0562.14
0861.04	1786.36404	0620.56	1302315119.0	-0561.27
0861.90	2090.90957	0619.70	1311115117.0	-0560.41
0862.80	1845.45434	0618.80	1319915118.0	-0559.51
0863.73	1968.18316	0617.87	1328715112.0	-0558.58
0864.63	2109.08995	0616.97	1337515116.0	-0557.68
0865.50	1936.36254	0616.10	1346315121.0	-0556.81
0866.35	1895.45433	0615.25	1355115122.0	-0555.96
0867.22	1931.81994	0614.38	1363915114.0	-0555.09
0868.11	1890.90823	0613.49	1372715118.0	-0554.20
0868.97	1836.36405	0612.63	1381515116.0	-0553.34
0869.82	1936.36342	0611.78	1390315117.0	-0552.49
0870.71	1818.18182	0610.89	1399115117.0	-0551.60
0871.64	2090.90862	0609.96	1407915119.0	-0550.67
0872.54	1981.81818	0609.06	1416715119.0	-0549.77
0873.42	1918.18269	0608.18	1425515115.0	-0548.89
0874.28	1786.36343	0607.32	1434315116.0	-0548.03
0875.17	1913.63658	0606.43	1443115115.0	-0547.14
0876.05	1904.54372	0605.55	1451915123.0	-0546.26
0876.91	1881.82075	0604.69	1460715111.0	-0545.40
0877.76	1909.08961	0603.84	1469515117.0	-0544.55
0878.65	1913.63549	0602.95	1478315121.0	-0543.66
0879.57	1822.72727	0602.03	1487115121.0	-0542.74
0880.48	1759.09251	0601.12	1495915113.0	-0541.83
0881.34	1863.63509	0600.26	1504715119.0	-0540.97
0882.19	1818.18140	0599.41	1513515121.0	-0540.12
0883.07	1845.45517	0598.53	1522315118.0	-0539.24
0883.94	1686.36383	0597.66	1531115117.0	-0538.37
0884.79	1786.36323	0596.81	1539915119.0	-0537.52
0885.64	1799.99898	0595.96	1548715124.0	-0536.67
0886.56	1850.00168	0595.04	1557515116.0	-0535.75
0887.48	1745.45415	0594.12	1566315118.0	-0534.83
0888.40	1863.63700	0593.20	1575115115.0	-0533.92
0889.27	1845.45434	0592.33	1583915116.0	-0533.04
0890.13	1795.45414	0591.47	1592715118.0	-0532.18
0890.97	1795.45557	0590.63	1601515113.0	-0531.34
0891.81	1859.09028	0589.79	1610315116.0	-0530.50
0892.68	1731.81799	0588.92	1619115117.0	-0529.63
0893.55	1863.63615	0588.05	1627915118.0	-0528.76
0894.46	1650.00038	0587.14	1636715116.0	-0527.85
0895.37	1745.45474	0586.23	1645515115.0	-0526.94
0896.27	1549.99947	0585.33	1654315118.0	-0526.04
0897.14	1709.09149	0584.46	1663115115.0	-0525.18
0897.99	1836.36218	0583.61	1671915122.0	-0524.32
0898.87	1877.27379	0582.73	1680715117.0	-0523.44
0899.74	1799.99959	0581.86	1689515119.0	-0522.57
0900.58	1850.00063	0581.02	1698315116.0	-0521.73
0901.45	1650.00019	0580.15	1707115115.0	-0520.86
0902.36	1490.90858	0579.24	1715915118.0	-0519.95
0903.28	1777.27313	0578.32	1724715116.0	-0519.03
0904.17	1754.54466	0577.43	1733515120.0	-0518.14
0905.05	1754.54645	0576.55	1742315115.0	-0517.26
0905.92	1881.81733	0575.68	1751115119.0	-0516.40
0906.80	1849.99958	0574.80	1759915121.0	-0515.51
0907.67	1749.99980	0573.93	1768715122.0	-0514.64
0908.52	1913.63767	0573.08	1777515116.0	-0513.79
0909.38	1781.81778	0572.22	1786315118.0	-0512.93
0910.30	1868.18224	0571.30	1795115116.0	-0512.01
0911.20	1804.54607	0570.40	1803915113.0	-0511.11
0912.08	1727.27175	0569.52	1812715118.0	-0510.23
0912.94	1918.18204	0568.66	1821515117.0	-0509.37
0913.81	1663.63693	0567.79	1830315114.0	-0508.50
0914.68	1686.36191	0566.92	1839115123.0	-0507.63
0915.54	1904.54719	0566.06	1847915115.0	-0506.77
0916.38	1581.81764	0565.22	1856715118.0	-0505.93
0917.26	1740.90929	0564.34	1865515117.0	-0505.05
0918.22	1831.81818	0563.38	1874315117.0	-0504.09
0919.16	1695.45435	0562.44	1883115118.0	-0503.15
0920.07	1763.64919	0561.53	1891915054.0	-0502.24
0920.93	1731.80637	0560.67	1900715114.0	-0501.38
0921.79	1672.72765	0559.81	1909515112.0	-0500.52
0922.68	1740.90731	0558.92	1918315121.0	-0499.63
0923.55	1718.18338	0558.05	1927115113.0	-0498.76
0924.42	1627.27143	0557.18	1935915120.0	-0497.89
0925.31	1672.72784	0556.29	1944715117.0	-0497.00
0926.23	1772.72627	0555.37	1953515122.0	-0496.08
0927.14	1586.36364	0554.46	1962315122.0	-0495.17
0928.03	1690.90986	0553.57	1971115118.0	-0494.28
0928.89	1840.90909	0552.71	1979915118.0	-0493.42
0929.75	1800.00082	0551.85	1988715114.0	-0492.56
0930.62	1731.81759	0550.98	1997515117.0	-0491.69
0931.50	1804.54566	0550.10	2006315116.0	-0490.82
0932.36	1586.36850	0549.24	2015115089.0	-0489.95
0933.23	1554.53963	0548.37	2023915122.0	-0489.08
0934.16	1645.45623	0547.44	2032715113.0	-0488.15
0935.07	1790.90889	0546.53	2041515114.0	-0487.24
0935.97	1531.81749	0545.63	2050315118.0	-0486.34
0936.83	1686.36402	0544.77	2059115116.0	-0485.48
0937.71	1736.36344	0543.89	2067915117.0	-0484.60
0938.58	1704.54526	0543.02	2076715118.0	-0483.73
0939.45	1613.63655	0542.15	2085515117.0	-0482.87
0940.29	1640.90909	0541.31	2094315117.0	-0482.02
0941.20	1727.27312	0540.40	2103115115.0	-0481.11
0942.12	1659.09091	0539.48	2111915115.0	-0480.19
0943.03	1586.36310	0538.57	2120715118.0	-0479.28
0943.89	1668.18239	0537.71	2129515115.0	-0478.42
0944.75	1600.00018	0536.85	2138315114.0	-0477.56
0945.63	1540.90787	0535.97	2147115121.0	-0476.68
0946.49	1663.63731	0535.11	2155915116.0	-0475.82
0947.35	1704.54507	0534.25	2164715118.0	-0474.96
0948.20	1686.36517	0533.40	2173515110.0	-0474.11
0949.10	1690.90775	0532.50	2182315117.0	-0473.21
0950.04	1854.54461	0531.56	2191115121.0	-0472.27
0950.95	1781.81879	0530.65	2199915118.0	-0471.36
0951.83	1700.00039	0529.77	2208715116.0	-0470.48
0952.70	1663.63693	0528.90	2217515113.0	-0469.62
0953.58	1704.54429	0528.02	2226315119.0	-0468.73
0954.46	1790.90909	0527.14	2235115119.0	-0467.85
0955.33	1740.90929	0526.27	2243915118.0	-0466.98
0956.18	1690.90909	0525.42	2252715118.0	-0466.13
0957.09	1568.18217	0524.51	2261515116.0	-0465.22
0958.01	1709.09071	0523.59	2270315117.0	-0464.30
0958.91	1627.27273	0522.69	2279115117.0	-0463.40
0959.78	1790.90828	0521.82	2287915121.0	-0462.53
0960.63	1718.18260	0520.97	2296715117.0	-0461.68
0961.50	1649.99981	0520.10	2305515118.0	-0460.81
0962.38	1604.54418	0519.22	2314315125.0	-0459.93
0963.25	1640.91040	0518.35	2323115118.0	-0459.06
0964.10	1640.91674	0517.50	2331915077.0	-0458.21
0965.01	1631.81076	0516.59	2340715117.0	-0457.31
0965.93	1686.36402	0515.67	2349515115.0	-0456.38
0966.84	1663.63447	0514.76	2358315125.0	-0455.47
0967.72	1568.18182	0513.88	2367115125.0	-0454.59
0968.57	1540.91032	0513.03	2375915118.0	-0453.74
0969.45	1727.27273	0512.15	2384715118.0	-0452.86
0970.32	1868.18267	0511.28	2393515114.0	-0451.99
0971.18	1536.36259	0510.42	2402315120.0	-0451.13
0972.05	1786.36465	0509.55	2411115115.0	-0450.26
0972.96	1727.27253	0508.64	2419915116.0	-0449.35
0973.87	1568.18075	0507.73	2428715122.0	-0448.44
0974.75	1504.54922	0506.85	2437515100.0	-0447.56
0975.60	1581.81495	0506.00	2446315118.0	-0446.71
0976.46	1631.81725	0505.14	2455115123.0	-0445.85
0977.34	1550.00141	0504.26	2463915115.0	-0444.97
0978.21	1627.27236	0503.39	2472715117.0	-0444.10
0979.05	1777.27313	0502.55	2481515115.0	-0443.26
0979.93	1540.90822	0501.67	2490315120.0	-0442.38
0980.87	1545.45525	0500.73	2499115116.0	-0441.44
0981.79	1622.72690	0499.81	2507915118.0	-0440.52
0982.69	1618.18219	0498.91	2516715116.0	-0439.62
0983.56	1450.00000	0498.04	2525515116.0	-0438.75
0984.44	1627.27310	0497.16	2534315114.0	-0437.87
0985.33	1554.54475	0496.27	2543115118.0	-0436.98
0986.20	1363.63605	0495.40	2551915120.0	-0436.11
0987.06	1686.36383	0494.54	2560715119.0	-0435.26
0987.93	1577.27416	0493.67	2569515111.0	-0434.38
0988.86	1690.90813	0492.74	2578315116.0	-0433.45
0989.78	1504.54580	0491.82	2587115114.0	-0432.54
0990.66	1568.18182	0490.94	2595915114.0	-0431.65
0991.52	1513.63550	0490.08	2604715119.0	-0430.79
0992.39	1586.36436	0489.21	2613515115.0	-0429.92
0993.27	1586.36382	0488.33	2622315114.0	-0429.04
0994.13	1595.45346	0487.47	2631115120.0	-0428.18
0994.99	1522.74042	0486.61	2639915044.0	-0427.32
0995.86	1577.25982	0485.74	2648715116.0	-0426.45
0996.78	1522.72641	0484.82	2657515121.0	-0425.53
0997.71	1586.36418	0483.89	2666315118.0	-0424.61
0998.60	1595.45346	0483.00	2675115124.0	-0423.72
0999.46	1522.72796	0482.14	2683915120.0	-0422.85
1000.33	1368.18275	0481.27	2692715114.0	-0421.98
1001.21	1745.45395	0480.39	2701515117.0	-0421.10
1002.08	1500.00000	0479.52	2710315117.0	-0420.23
1002.94	1545.45455	0478.66	2719115117.0	-0419.38
1003.82	1536.36294	0477.78	2727915121.0	-0418.49
1004.74	1509.09108	0476.86	2736715120.0	-0417.57
1005.65	1531.81888	0475.95	2745515116.0	-0416.66
1006.53	1581.81818	0475.07	2754315116.0	-0415.78
1007.38	1490.90824	0474.22	2763115121.0	-0414.93
1008.26	1463.63686	0473.34	2771915118.0	-0414.05
1009.13	1459.09107	0472.47	2780715117.0	-0413.18
1009.97	1604.54582	0471.63	2789515115.0	-0412.34
1010.83	1595.45346	0470.77	2798315121.0	-0411.48
1011.72	1522.72831	0469.88	2807115115.0	-0410.59
1012.66	1677.27235	0468.94	2815915117.0	-0409.65
1013.57	1563.63636	0468.03	2824715117.0	-0408.74
1014.45	1386.36427	0467.15	2833515113.0	-0407.86
1015.32	1390.90877	0466.28	2842315115.0	-0406.99
1016.21	1399.99936	0465.39	2851115119.0	-0406.11
1017.08	1513.63654	0464.52	2859915118.0	-0405.23
1017.93	1509.09091	0463.67	2868715118.0	-0404.38
1018.80	1622.72727	0462.80	2877515118.0	-0403.51
1019.70	1531.81766	0461.90	2886315121.0	-0402.61
1020.62	1518.18320	0460.98	2895115113.0	-0401.69
1021.52	1522.72658	0460.08	2903915117.0	-0400.79
1022.39	1650.00019	0459.21	2912715116.0	-0399.92
1023.24	1472.72811	0458.36	2921515111.0	-0399.07
1024.12	1540.90804	0457.48	2930315117.0	-0398.20
1024.99	1309.09031	0456.61	2939115121.0	-0397.32
1025.85	1381.81928	0455.75	2947915114.0	-0396.46
1026.70	1509.09074	0454.90	2956715115.0	-0395.61
1027.60	1477.27155	0454.00	2965515122.0	-0394.71
1028.52	1377.27335	0453.08	2974315118.0	-0393.79
1029.44	1550.00000	0452.16	2983115118.0	-0392.87
1030.31	1677.27311	0451.29	2991915116.0	-0392.00
1031.17	1490.90892	0450.43	3000715117.0	-0391.14
1032.05	1477.27222	0449.55	3009515120.0	-0390.26
1032.92	1531.81975	0448.68	3018315111.0	-0389.39
1033.77	1395.45328	0447.83	3027115119.0	-0388.54
1034.63	1540.91329	0446.97	3035915095.0	-0387.68
1035.54	1490.90570	0446.06	3044715115.0	-0386.77
1036.46	1550.00053	0445.14	3053515112.0	-0385.85
1037.35	1272.72669	0444.25	3062315116.0	-0384.96
1038.22	1422.72646	0443.38	3071115121.0	-0384.09
1039.06	1490.90875	0442.54	3079915123.0	-0383.25
1039.92	1413.63765	0441.68	3088715115.0	-0382.39
1040.79	1440.90893	0440.81	3097515116.0	-0381.53
1041.64	1527.27203	0439.96	3106315120.0	-0380.67
1042.51	1500.00068	0439.09	3115115116.0	-0379.80
1043.45	1522.72675	0438.15	3123915119.0	-0378.86
1044.39	1468.18182	0437.21	3132715119.0	-0377.92
1045.30	1577.27237	0436.30	3141515121.0	-0377.01
1046.17	1431.81900	0435.43	3150315116.0	-0376.14
1047.04	1363.63652	0434.56	3159115115.0	-0375.27
1047.92	1522.72641	0433.68	3167915120.0	-0374.39
1048.79	1381.83106	0432.81	3176715038.0	-0373.52
1049.65	1413.62287	0431.95	3185515122.0	-0372.66
1050.53	1404.54529	0431.07	3194315123.0	-0371.78
1051.46	1450.00000	0430.14	3203115123.0	-0370.85
1052.37	1436.36494	0429.23	3211915115.0	-0369.94
1053.25	1513.63602	0428.35	3220715117.0	-0369.06
1054.11	1586.36292	0427.49	3229515121.0	-0368.20
1054.99	1454.54628	0426.61	3238315116.0	-0367.33
1055.87	1477.27340	0425.73	3247115112.0	-0366.44
1056.74	1390.90798	0424.86	3255915119.0	-0365.57
1057.59	1586.36454	0424.01	3264715114.0	-0364.72
1058.46	1431.81737	0423.14	3273515119.0	-0363.85
1059.39	1595.45346	0422.21	3282315125.0	-0362.92
1060.30	1472.72777	0421.30	3291115122.0	-0362.01
1061.20	1413.63765	0420.40	3299915114.0	-0361.11
1062.05	1440.90762	0419.55	3308715123.0	-0360.26
1062.93	1450.00099	0418.67	3317515117.0	-0359.38
1063.82	1563.63654	0417.78	3326315116.0	-0358.49
1064.69	1318.18242	0416.91	3335115112.0	-0357.62
1065.54	1404.54386	0416.06	3343915122.0	-0356.77
1066.42	1440.91024	0415.18	3352715115.0	-0355.89
1067.34	1468.18065	0414.26	3361515122.0	-0354.97
1068.26	1631.81874	0413.34	3370315119.0	-0354.05
1069.14	1409.09203	0412.46	3379115112.0	-0353.17
1070.00	1336.36257	0411.60	3387915119.0	-0352.32
1070.86	1549.99930	0410.74	3396715123.0	-0351.45
1071.72	1368.18291	0409.88	3405515116.0	-0350.59
1072.59	1331.81712	0409.01	3414315123.0	-0349.72
1073.44	1359.09199	0408.16	3423115116.0	-0348.87
1074.32	1581.81818	0407.28	3431915116.0	-0347.99
1075.25	1368.18213	0406.35	3440715114.0	-0347.06
1076.17	1431.81802	0405.43	3449515115.0	-0346.14
1077.07	1477.27155	0404.53	3458315122.0	-0345.24
1077.94	1477.27340	0403.66	3467115118.0	-0344.37
1078.81	1440.90925	0402.79	3475915117.0	-0343.50
1079.69	1422.72711	0401.91	3484715118.0	-0342.62
1080.55	1340.90909	0401.05	3493515118.0	-0341.76
1081.42	1318.18227	0400.18	3502315115.0	-0340.89
1082.31	1449.99918	0399.29	3511115120.0	-0340.00
1083.24	1281.81876	0398.36	3519915116.0	-0339.07
1084.13	1422.72598	0397.47	3528715124.0	-0338.18
1085.01	1413.63765	0396.59	3537515116.0	-0337.30
1085.88	1486.36229	0395.72	3546315124.0	-0336.43
1086.75	1354.54576	0394.85	3555115122.0	-0335.56
1087.62	1381.81897	0393.98	3563915117.0	-0334.69
1088.46	1490.90875	0393.14	3572715119.0	-0333.85
1089.27	1363.63729	0392.33	3581515113.0	-0333.05
1090.16	1377.27116	0391.44	3590315123.0	-0332.15
1091.09	1586.36508	0390.51	3599115115.0	-0331.22
1091.99	1372.72727	0389.61	3607915115.0	-0330.32
1092.86	1386.36427	0388.74	3616715111.0	-0329.45
1093.73	1281.81745	0387.87	3625515116.0	-0328.58
1094.62	1313.63562	0386.98	3634315121.0	-0327.69
1095.50	1386.36411	0386.10	3643115118.0	-0326.81
1096.35	1290.90806	0385.25	3651915125.0	-0325.96
1097.20	1372.72774	0384.40	3660715122.0	-0325.11
1098.10	1386.36458	0383.50	3669515116.0	-0324.21
1099.03	1190.90882	0382.57	3678315118.0	-0323.28
1099.92	1295.45484	0381.68	3687115116.0	-0322.39
1100.78	1309.09061	0380.82	3695915118.0	-0321.53
1101.64	1445.45487	0379.96	3704715116.0	-0320.67
1102.51	1372.72680	0379.09	3713515119.0	-0319.80
1103.37	1327.27348	0378.23	3722315114.0	-0318.94
1104.24	1309.09061	0377.36	3731115116.0	-0318.08
1105.08	1340.90909	0376.52	3739915116.0	-0317.23
1106.00	1390.90925	0375.60	3748715115.0	-0316.31
1106.94	1249.99986	0374.66	3757515116.0	-0315.37
1107.86	1527.27307	0373.74	3766315114.0	-0314.45
1108.73	1295.45366	0372.87	3775115120.0	-0313.58
1109.59	1304.54590	0372.01	3783915117.0	-0312.72
1110.47	1363.63574	0371.13	3792715121.0	-0311.84
1111.35	1504.54631	0370.25	3801515116.0	-0310.96
1112.22	1495.45421	0369.38	3810315118.0	-0310.09
1113.09	1340.90940	0368.51	3819115116.0	-0309.22
1114.00	1236.36279	0367.60	3827915122.0	-0308.31
1114.92	1272.72785	0366.68	3836715118.0	-0307.39
1115.81	1427.27321	0365.79	3845515115.0	-0306.50
1116.68	1313.63577	0364.92	3854315119.0	-0305.63
1117.54	1413.63717	0364.06	3863115114.0	-0304.77
1118.42	1368.18042	0363.18	3871915123.0	-0303.90
1119.28	1377.27382	0362.32	3880715116.0	-0303.03
1120.13	1290.90865	0361.47	3889515119.0	-0302.18
1121.01	1350.00169	0360.59	3898315108.0	-0301.30
1121.93	1372.72618	0359.67	3907115115.0	-0300.38
1122.85	1509.09022	0358.75	3915915119.0	-0299.46
1123.74	1390.90925	0357.86	3924715118.0	-0298.57
1124.61	1445.45471	0356.99	3933515117.0	-0297.70
1125.48	1268.18196	0356.12	3942315116.0	-0296.83
1126.37	1222.72686	0355.23	3951115119.0	-0295.94
1127.23	1272.72771	0354.37	3959915116.0	-0295.08
1128.09	1263.63608	0353.51	3968715118.0	-0294.22

#S C A N  C A N C E L L E D
