#XPS-spectrum

#Date/time: 		 2018-12-19__14-54-48


#AK pressure: 	3,63E-8 	 mbar
#Pass energy: 	54.6 		 eV
#Volt. bias: 	0.0 		 V
#E_Photon: 	1486.7 		 V
#I_Emission: 	10 		 mA
#Counttime: 	12000 		 ms
#Prevoltage: 	0 		 V
#Workfunction: 	5.1 		 eV
#Samples/eV: 	5 		 1/s
#TDAC: 	System.Windows.Forms.TextBox, Text: 1.207 		 V
#V_Lens: 	System.Windows.Forms.TextBox, Text: 3800 		 V
#Slope: 	0.0250 		 Samples/eV
#V_Channelt.: 	2800 		 V
#Flow cooling: 	0,0 		 l/min
#Slit: 	C1 	




#E_bind 	 cps 	 E_kin 	 V_hemo


-0025.43	659.09076	1507.03	3945147636.0	-1447.74
-0025.30	772.72683	1506.90	3953947641.0	-1447.61
-0025.18	690.90933	1506.78	3962747638.0	-1447.49
-0025.01	654.54568	1506.61	3971547635.0	-1447.32
-0024.77	650.00022	1506.37	3980347632.0	-1447.09
-0024.52	686.36332	1506.12	3989147636.0	-1446.83
-0024.27	640.90931	1505.87	3997947633.0	-1446.58
-0024.03	631.81818	1505.63	4006747633.0	-1446.34
-0023.82	677.27257	1505.42	4015547635.0	-1446.13
-0023.63	763.63645	1505.23	4024347634.0	-1445.94
-0023.38	681.81810	1504.98	4033147635.0	-1445.70
-0023.10	718.18198	1504.70	4041947633.0	-1445.41
-0022.83	809.09082	1504.43	4050747634.0	-1445.14
-0022.61	749.99991	1504.21	4059547635.0	-1444.92
-0022.43	736.36347	1504.03	4068347637.0	-1444.74
-0022.25	781.81863	1503.85	4077147632.0	-1444.56
-0022.05	954.54491	1503.65	4085947637.0	-1444.36
-0021.82	940.90984	1503.42	4094747630.0	-1444.13
-0021.60	936.36236	1503.20	4103547642.0	-1443.91
-0021.36	1140.91065	1502.96	4112347630.0	-1443.67
-0021.11	1149.99895	1502.71	4121147638.0	-1443.42
-0020.88	1500.00068	1502.48	4129947634.0	-1443.19
-0020.67	1604.54600	1502.27	4138747631.0	-1442.98
-0020.48	1654.54508	1502.08	4147547633.0	-1442.79
-0020.27	1709.09033	1501.87	4156347636.0	-1442.58
-0020.06	1977.27363	1501.66	4165147632.0	-1442.37
-0019.85	2081.81795	1501.45	4173947633.0	-1442.16
-0019.62	2159.09066	1501.22	4182747634.0	-1441.93
-0019.37	2136.36364	1500.97	4191547634.0	-1441.68
-0019.10	1927.27207	1500.70	4200347637.0	-1441.41
-0018.85	2231.81767	1500.45	4209147639.0	-1441.17
-0018.65	2090.91028	1500.25	4217947634.0	-1440.96
-0018.45	2049.99953	1500.05	4226747636.0	-1440.76
-0018.26	1995.45455	1499.86	4235547636.0	-1440.57
-0018.06	1863.63700	1499.66	4244347633.0	-1440.37
-0017.84	1849.99853	1499.44	4253147640.0	-1440.15
-0017.62	1831.82110	1499.22	4261947626.0	-1439.93
-0017.39	2031.81703	1498.99	4270747631.0	-1439.70
-0017.17	1836.36280	1498.77	4279547635.0	-1439.48
-0016.95	1986.36431	1498.55	4288347632.0	-1439.26
-0016.73	-3.86359	1498.33	2180343.0	-1439.04
-0016.52	1927.27251	1498.12	10980344.0	-1438.83
-0016.31	2059.09114	1497.91	19780343.0	-1438.62
-0016.10	1959.09113	1497.70	28580342.0	-1438.41
-0015.88	1922.72684	1497.48	37380344.0	-1438.19
-0015.67	1831.81839	1497.27	46180343.0	-1437.98
-0015.39	1509.09211	1496.99	54980336.0	-1437.70
-0015.10	1459.09074	1496.70	63780337.0	-1437.41
-0014.86	1399.99920	1496.46	72580342.0	-1437.17
-0014.65	1295.45499	1496.25	81380339.0	-1436.96
-0014.47	1290.90938	1496.07	90180337.0	-1436.79
-0014.28	1200.00027	1495.88	98980335.0	-1436.59
-0014.07	1190.90774	1495.67	107780345.0	-1436.38
-0013.84	1077.27383	1495.44	116580336.0	-1436.15
-0013.62	1163.63557	1495.22	125380342.0	-1435.93
-0013.39	963.63702	1494.99	134180336.0	-1435.70
-0013.15	1059.09019	1494.75	142980342.0	-1435.46
-0012.93	1013.63648	1494.53	151780341.0	-1435.24
-0012.71	904.54566	1494.31	160580339.0	-1435.02
-0012.51	922.72822	1494.11	169380330.0	-1434.82
-0012.30	963.63527	1493.90	178180340.0	-1434.61
-0012.08	963.63658	1493.68	186980338.0	-1434.39
-0011.86	922.72727	1493.46	195780338.0	-1434.17
-0011.65	895.45455	1493.25	204580338.0	-1433.96
-0011.40	1004.54477	1493.00	213380344.0	-1433.71
-0011.14	1045.45514	1492.74	222180339.0	-1433.45
-0010.92	1022.72739	1492.52	230980338.0	-1433.23
-0010.71	954.54578	1492.31	239780335.0	-1433.02
-0010.52	1104.54508	1492.12	248580338.0	-1432.83
-0010.32	1100.00013	1491.92	257380337.0	-1432.63
-0010.09	990.90830	1491.69	266180344.0	-1432.41
-0009.88	1086.36450	1491.48	274980337.0	-1432.20
-0009.67	1086.36327	1491.27	283780340.0	-1431.98
-0009.47	1036.36423	1491.07	292580335.0	-1431.78
-0009.25	1022.72681	1490.85	301380339.0	-1431.56
-0009.03	1190.90868	1490.63	310180342.0	-1431.34
-0008.81	1063.63673	1490.41	318980339.0	-1431.12
-0008.60	1027.27238	1490.20	327780342.0	-1430.91
-0008.39	981.81818	1489.99	336580342.0	-1430.70
-0008.17	981.81840	1489.77	345380340.0	-1430.48
-0007.96	1040.90897	1489.56	354180341.0	-1430.27
-0007.73	940.90920	1489.33	362980340.0	-1430.04
-0007.44	1222.72783	1489.04	371780336.0	-1429.75
-0007.17	1209.09008	1488.77	380580342.0	-1429.48
-0006.93	1140.90896	1488.53	389380343.0	-1429.24
-0006.74	1113.63687	1488.34	398180339.0	-1429.05
-0006.55	1200.00027	1488.15	406980337.0	-1428.86
-0006.36	1372.72727	1487.96	415780337.0	-1428.67
-0006.14	1272.72698	1487.74	424580339.0	-1428.45
-0005.92	1113.63624	1487.52	433380340.0	-1428.23
-0005.69	1309.09031	1487.29	442180344.0	-1428.01
-0005.45	1090.90897	1487.05	450980345.0	-1427.76
-0005.22	1172.72807	1486.82	459780339.0	-1427.53
-0005.00	1131.81780	1486.60	468580342.0	-1427.31
-0004.80	1222.72755	1486.40	477380340.0	-1427.11
-0004.60	1131.81805	1486.20	486180341.0	-1426.91
-0004.38	1213.63678	1485.98	494980338.0	-1426.70
-0004.16	1104.54583	1485.76	503780335.0	-1426.47
-0003.95	1318.18062	1485.55	512580343.0	-1426.26
-0003.72	1200.00027	1485.32	521380341.0	-1426.03
-0003.46	1131.81870	1485.06	530180337.0	-1425.77
-0003.21	1227.27273	1484.81	538980337.0	-1425.52
-0002.99	1204.54559	1484.59	547780336.0	-1425.30
-0002.78	1149.99869	1484.38	556580346.0	-1425.10
-0002.58	1222.72880	1484.18	565380335.0	-1424.89
-0002.38	1240.90824	1483.98	574180341.0	-1424.69
-0002.17	1131.81857	1483.77	582980338.0	-1424.48
-0001.95	1159.09091	1483.55	591780338.0	-1424.26
-0001.75	1031.81830	1483.35	600580337.0	-1424.06
-0001.54	1081.81769	1483.14	609380341.0	-1423.85
-0001.32	1209.09132	1482.92	618180338.0	-1423.63
-0001.10	1186.36391	1482.70	626980336.0	-1423.41
-0000.89	1168.18155	1482.49	635780338.0	-1423.20
-0000.67	1131.81818	1482.27	644580338.0	-1422.98
-0000.46	1136.36325	1482.06	653380341.0	-1422.77
-0000.24	1140.90883	1481.84	662180343.0	-1422.55
-0000.02	1159.09157	1481.62	670980338.0	-1422.33
0000.22	1154.54545	1481.38	679780338.0	-1422.09
0000.49	1118.18169	1481.11	688580339.0	-1421.82
0000.75	1145.45494	1480.85	697380336.0	-1421.56
0000.97	1354.54484	1480.63	706180340.0	-1421.34
0001.16	1090.90921	1480.44	714980339.0	-1421.15
0001.34	1340.90879	1480.26	723780341.0	-1420.97
0001.54	1168.18208	1480.06	732580339.0	-1420.77
0001.75	1295.45410	1479.85	741380342.0	-1420.56
0001.98	1377.27320	1479.62	750180339.0	-1420.33
0002.20	1213.63636	1479.40	758980339.0	-1420.11
0002.43	1127.27221	1479.17	767780343.0	-1419.88
0002.66	1136.36364	1478.94	776580343.0	-1419.66
0002.88	1268.18182	1478.72	785380343.0	-1419.43
0003.08	1163.63716	1478.52	794180337.0	-1419.23
0003.29	1154.54493	1478.31	802980341.0	-1419.02
0003.51	1168.18195	1478.09	811780340.0	-1418.80
0003.73	1272.72727	1477.87	820580340.0	-1418.58
0003.95	1163.63676	1477.65	829380337.0	-1418.36
0004.17	1063.63600	1477.43	838180340.0	-1418.14
0004.42	1245.45426	1477.18	846980342.0	-1417.89
0004.66	1340.90970	1476.94	855780338.0	-1417.65
0004.89	1245.45398	1476.71	864580342.0	-1417.42
0005.09	1313.63636	1476.51	873380342.0	-1417.22
0005.28	1300.00044	1476.32	882180339.0	-1417.03
0005.48	1163.63729	1476.12	890980332.0	-1416.83
0005.70	1272.72669	1475.90	899780336.0	-1416.61
0005.92	1277.27244	1475.68	908580338.0	-1416.39
0006.12	1177.27299	1475.48	917380336.0	-1416.19
0006.33	1377.27194	1475.27	926180341.0	-1415.99
0006.54	1290.90982	1475.06	934980336.0	-1415.77
0006.76	1195.45414	1474.84	943780339.0	-1415.55
0006.97	1299.99941	1474.63	952580343.0	-1415.34
0007.19	1236.36518	1474.41	961380332.0	-1415.12
0007.41	1209.09008	1474.19	970180338.0	-1414.90
0007.63	1422.72679	1473.97	978980341.0	-1414.68
0007.84	1240.91008	1473.76	987780334.0	-1414.47
0008.11	1186.36310	1473.49	996580338.0	-1414.20
0008.39	1345.45455	1473.21	1005380338.0	-1413.92
0008.65	1286.36261	1472.95	1014180345.0	-1413.66
0008.86	1354.54622	1472.74	1022980340.0	-1413.45
0009.05	1186.36323	1472.55	1031780343.0	-1413.27
0009.23	1081.81843	1472.37	1040580341.0	-1413.08
0009.43	1304.54560	1472.17	1049380340.0	-1412.88
0009.65	1377.27304	1471.95	1058180338.0	-1412.66
0009.87	1249.99986	1471.73	1066980339.0	-1412.44
0010.11	1250.00043	1471.49	1075780336.0	-1412.20
0010.35	1368.18182	1471.25	1084580336.0	-1411.96
0010.58	1236.36364	1471.02	1093380336.0	-1411.73
0010.78	1227.27189	1470.82	1102180342.0	-1411.53
0010.99	1254.54588	1470.61	1110980339.0	-1411.32
0011.20	1263.63608	1470.40	1119780341.0	-1411.11
0011.41	1309.09046	1470.19	1128580344.0	-1410.90
0011.63	1136.36377	1469.97	1137380343.0	-1410.68
0011.84	1163.63702	1469.76	1146180338.0	-1410.47
0012.10	1213.63636	1469.50	1154980338.0	-1410.21
0012.37	1195.45455	1469.23	1163780338.0	-1409.94
0012.61	1218.18196	1468.99	1172580337.0	-1409.70
0012.82	1227.27287	1468.78	1181380336.0	-1409.49
0013.00	1186.36310	1468.60	1190180340.0	-1409.31
0013.20	1113.63674	1468.40	1198980337.0	-1409.11
0013.41	1077.27199	1468.19	1207780343.0	-1408.91
0013.63	1272.72829	1467.97	1216580336.0	-1408.68
0013.84	1236.36321	1467.76	1225380339.0	-1408.47
0014.06	1095.45430	1467.54	1234180341.0	-1408.25
0014.27	1286.36407	1467.33	1242980338.0	-1408.04
0014.50	1259.09005	1467.10	1251780344.0	-1407.81
0014.72	1250.00114	1466.88	1260580336.0	-1407.60
0014.93	1204.54518	1466.67	1269380338.0	-1407.38
0015.15	1227.27273	1466.45	1278180338.0	-1407.16
0015.36	1299.99970	1466.24	1286980340.0	-1406.95
0015.57	1168.18222	1466.03	1295780337.0	-1406.74
0015.80	1218.18182	1465.80	1304580337.0	-1406.52
0016.07	1327.27243	1465.53	1313380339.0	-1406.24
0016.35	1340.90924	1465.25	1322180338.0	-1405.96
0016.59	1236.36378	1465.01	1330980337.0	-1405.72
0016.80	1259.09048	1464.80	1339780340.0	-1405.51
0016.97	1263.63622	1464.63	1348580341.0	-1405.34
0017.16	1309.09076	1464.44	1357380342.0	-1405.15
0017.37	1245.45497	1464.23	1366180339.0	-1404.94
0017.59	1222.72658	1464.01	1374980344.0	-1404.72
0017.81	1177.27340	1463.79	1383780339.0	-1404.50
0018.04	1186.36296	1463.56	1392580344.0	-1404.27
0018.27	1204.54573	1463.33	1401380342.0	-1404.04
0018.50	1177.27299	1463.10	1410180340.0	-1403.82
0018.71	1218.18140	1462.89	1418980343.0	-1403.60
0018.91	1300.00059	1462.69	1427780339.0	-1403.40
0019.12	1354.54499	1462.48	1436580342.0	-1403.20
0019.33	1227.27273	1462.27	1445380342.0	-1402.98
0019.54	1231.81860	1462.06	1454180339.0	-1402.77
0019.76	1318.18182	1461.84	1462980339.0	-1402.55
0020.01	1459.09141	1461.59	1471780336.0	-1402.30
0020.27	1190.90896	1461.33	1480580337.0	-1402.04
0020.49	1354.54499	1461.11	1489380340.0	-1401.82
0020.71	1290.91026	1460.89	1498180332.0	-1401.60
0020.91	1249.99886	1460.69	1506980340.0	-1401.40
0021.11	1249.99957	1460.49	1515780343.0	-1401.20
0021.31	1268.18268	1460.29	1524580337.0	-1401.00
0021.52	1340.90909	1460.08	1533380337.0	-1400.79
0021.74	1240.90796	1459.86	1542180345.0	-1400.57
0021.95	1236.36462	1459.65	1550980338.0	-1400.36
0022.16	1431.81688	1459.44	1559780346.0	-1400.15
0022.38	1290.91026	1459.22	1568580338.0	-1399.94
0022.59	1281.81774	1459.01	1577380341.0	-1399.72
0022.81	1300.00030	1458.79	1586180339.0	-1399.50
0023.03	1313.63711	1458.57	1594980334.0	-1399.28
0023.25	1172.72621	1458.35	1603780342.0	-1399.06
0023.46	1340.90940	1458.14	1612580340.0	-1398.86
0023.69	1322.72802	1457.91	1621380335.0	-1398.63
0023.96	1454.54496	1457.64	1630180338.0	-1398.35
0024.23	1259.09019	1457.37	1638980343.0	-1398.08
0024.46	1472.72828	1457.14	1647780337.0	-1397.85
0024.66	1249.99972	1456.94	1656580339.0	-1397.65
0024.84	1386.36348	1456.76	1665380340.0	-1397.47
0025.04	1349.99908	1456.56	1674180346.0	-1397.27
0025.25	1300.00133	1456.35	1682980337.0	-1397.06
0025.48	1500.00000	1456.12	1691780337.0	-1396.83
0025.70	1295.45484	1455.90	1700580335.0	-1396.61
0025.94	1509.09005	1455.66	1709380340.0	-1396.37
0026.17	1427.27289	1455.43	1718180339.0	-1396.14
0026.39	1277.27273	1455.21	1726980339.0	-1395.92
0026.60	1395.45455	1455.00	1735780339.0	-1395.71
0026.80	1386.36411	1454.80	1744580336.0	-1395.51
0027.01	1381.81755	1454.59	1753380340.0	-1395.30
0027.22	1350.00000	1454.38	1762180340.0	-1395.09
0027.44	1372.72758	1454.16	1770980338.0	-1394.87
0027.66	1427.27257	1453.94	1779780339.0	-1394.65
0027.92	1295.45484	1453.68	1788580337.0	-1394.39
0028.19	1431.81753	1453.41	1797380341.0	-1394.12
0028.41	1354.54592	1453.19	1806180338.0	-1393.90
0028.62	1513.63671	1452.98	1814980336.0	-1393.69
0028.81	1440.90876	1452.79	1823780338.0	-1393.50
0029.02	1572.72656	1452.58	1832580342.0	-1393.29
0029.23	1577.27273	1452.37	1841380342.0	-1393.08
0029.44	1459.09207	1452.16	1850180335.0	-1392.87
0029.65	1345.45439	1451.95	1858980336.0	-1392.66
0029.86	1577.27237	1451.74	1867780338.0	-1392.45
0030.07	1436.36266	1451.53	1876580344.0	-1392.24
0030.30	1568.18164	1451.30	1885380345.0	-1392.01
0030.51	1545.45560	1451.09	1894180339.0	-1391.80
0030.72	1540.90962	1450.88	1902980336.0	-1391.59
0030.94	1486.36296	1450.66	1911780340.0	-1391.37
0031.16	1454.54628	1450.44	1920580335.0	-1391.15
0031.37	1586.36310	1450.23	1929380338.0	-1390.94
0031.61	1586.36400	1449.99	1938180336.0	-1390.70
0031.88	1763.63616	1449.72	1946980337.0	-1390.43
0032.14	1590.90801	1449.46	1955780343.0	-1390.17
0032.37	1618.18163	1449.23	1964580344.0	-1389.94
0032.56	1795.45577	1449.04	1973380338.0	-1389.75
0032.75	1877.27166	1448.85	1982180343.0	-1389.56
0032.95	1827.27335	1448.65	1990980340.0	-1389.37
0033.16	1709.09149	1448.44	1999780337.0	-1389.15
0033.38	1963.63569	1448.22	2008580340.0	-1388.93
0033.60	1963.63770	1448.00	2017380334.0	-1388.71
0033.83	1831.81797	1447.77	2026180335.0	-1388.48
0034.06	1872.72578	1447.54	2034980342.0	-1388.25
0034.26	1922.72815	1447.34	2043780338.0	-1388.05
0034.47	1872.72770	1447.13	2052580336.0	-1387.84
0034.68	1809.09050	1446.92	2061380338.0	-1387.63
0034.90	1886.36407	1446.70	2070180336.0	-1387.42
0035.12	1895.45368	1446.48	2078980340.0	-1387.19
0035.33	1931.81752	1446.27	2087780343.0	-1386.98
0035.57	1854.54609	1446.03	2096580340.0	-1386.74
0035.80	1886.36278	1445.80	2105380344.0	-1386.51
0036.04	1922.72902	1445.56	2114180336.0	-1386.27
0036.26	1750.00000	1445.34	2122980336.0	-1386.05
0036.46	1722.72532	1445.14	2131780346.0	-1385.85
0036.66	1731.81936	1444.94	2140580340.0	-1385.65
0036.88	1768.18081	1444.72	2149380345.0	-1385.43
0037.10	1695.45589	1444.50	2158180338.0	-1385.21
0037.31	1772.72747	1444.29	2166980337.0	-1385.00
0037.50	1877.27123	1444.10	2175780344.0	-1384.81
0037.71	1690.90986	1443.89	2184580340.0	-1384.60
0037.92	1654.54564	1443.68	2193380339.0	-1384.39
0038.14	1590.90855	1443.46	2202180342.0	-1384.17
0038.36	1809.09235	1443.24	2210980335.0	-1383.95
0038.58	1681.81818	1443.02	2219780335.0	-1383.73
0038.79	1745.45316	1442.81	2228580342.0	-1383.52
0039.01	1631.81948	1442.59	2237380335.0	-1383.30
0039.22	1618.18090	1442.38	2246180340.0	-1383.09
0039.50	1704.54565	1442.10	2254980339.0	-1382.81
0039.80	1509.09160	1441.80	2263780335.0	-1382.51
0040.06	1622.72561	1441.54	2272580344.0	-1382.25
0040.27	1618.18274	1441.33	2281380339.0	-1382.04
0040.44	1627.27236	1441.16	2290180341.0	-1381.87
0040.63	1645.45473	1440.97	2298980340.0	-1381.68
0040.83	1759.09151	1440.77	2307780337.0	-1381.48
0041.06	1681.81799	1440.54	2316580338.0	-1381.25
0041.28	1790.90950	1440.32	2325380336.0	-1381.03
0041.53	1554.54475	1440.07	2334180340.0	-1380.78
0041.78	1659.09166	1439.82	2342980336.0	-1380.53
0041.99	1745.45296	1439.61	2351780344.0	-1380.32
0042.20	1518.18216	1439.40	2360580342.0	-1380.11
0042.40	1663.63731	1439.20	2369380337.0	-1379.91
0042.61	1568.18039	1438.99	2378180345.0	-1379.70
0042.83	1563.63672	1438.77	2386980343.0	-1379.48
0043.05	1690.90986	1438.55	2395780339.0	-1379.26
0043.27	1613.63600	1438.33	2404580341.0	-1379.04
0043.53	1668.18333	1438.07	2413380333.0	-1378.78
0043.79	1531.81801	1437.81	2422180334.0	-1378.52
0044.01	1668.18068	1437.59	2430980340.0	-1378.30
0044.22	1563.63636	1437.38	2439780340.0	-1378.09
0044.41	1636.36364	1437.19	2448580340.0	-1377.90
0044.61	1654.54527	1436.99	2457380341.0	-1377.70
0044.82	1613.63728	1436.78	2466180336.0	-1377.49
0045.04	1572.72584	1436.56	2474980344.0	-1377.27
0045.27	1554.54634	1436.33	2483780339.0	-1377.04
0045.49	1518.18182	1436.11	2492580339.0	-1376.82
0045.72	1581.81836	1435.88	2501380338.0	-1376.60
0045.93	1590.90837	1435.67	2510180342.0	-1376.38
0046.15	1604.54618	1435.45	2518980338.0	-1376.16
0046.36	1681.81818	1435.24	2527780338.0	-1375.95
0046.57	1672.72784	1435.03	2536580335.0	-1375.74
0046.78	1540.90822	1434.82	2545380340.0	-1375.53
0046.99	1777.27354	1434.61	2554180336.0	-1375.32
0047.21	1722.72708	1434.39	2562980337.0	-1375.10
0047.49	1627.27180	1434.11	2571780342.0	-1374.82
0047.76	1745.45375	1433.84	2580580346.0	-1374.55
0048.02	1813.63842	1433.58	2589380336.0	-1374.29
0048.21	1913.63397	1433.39	2598180347.0	-1374.10
0048.39	1859.09239	1433.21	2606980340.0	-1373.92
0048.58	2000.00182	1433.02	2615780332.0	-1373.73
0048.79	2272.72417	1432.81	2624580344.0	-1373.52
0049.01	2090.90933	1432.59	2633380343.0	-1373.30
0049.24	2404.54655	1432.36	2642180339.0	-1373.07
0049.46	2254.54520	1432.14	2650980340.0	-1372.85
0049.70	2499.99886	1431.90	2659780344.0	-1372.61
0049.93	2622.72966	1431.67	2668580336.0	-1372.39
0050.13	2518.18239	1431.47	2677380334.0	-1372.18
0050.34	2463.63468	1431.26	2686180340.0	-1371.97
0050.54	2327.27167	1431.06	2694980344.0	-1371.77
0050.76	2600.00207	1430.84	2703780337.0	-1371.55
0050.98	2777.27210	1430.62	2712580339.0	-1371.33
0051.20	2895.45487	1430.40	2721380338.0	-1371.11
0051.45	2968.18283	1430.15	2730180335.0	-1370.86
0051.70	3018.18319	1429.90	2738980331.0	-1370.61
0051.92	3068.17868	1429.68	2747780340.0	-1370.39
0052.12	3004.54545	1429.48	2756580340.0	-1370.19
0052.33	2913.63603	1429.27	2765380341.0	-1369.98
0052.52	2622.72846	1429.08	2774180337.0	-1369.79
0052.74	2731.81756	1428.86	2782980339.0	-1369.57
0052.97	2609.09180	1428.63	2791780336.0	-1369.34
0053.17	2668.17818	1428.43	2800580348.0	-1369.14
0053.37	2563.63899	1428.23	2809380339.0	-1368.94
0053.58	2413.63719	1428.02	2818180336.0	-1368.73
0053.82	2531.81703	1427.78	2826980340.0	-1368.49
0054.03	2750.00031	1427.57	2835780339.0	-1368.28
0054.25	2740.91003	1427.35	2844580336.0	-1368.06
0054.47	2736.36333	1427.13	2853380337.0	-1367.84
0054.68	2599.99911	1426.92	2862180340.0	-1367.63
0054.89	2740.90722	1426.71	2870980346.0	-1367.42
0055.12	2913.63934	1426.48	2879780337.0	-1367.19
0055.41	2827.27273	1426.19	2888580337.0	-1366.90
0055.68	2804.54418	1425.92	2897380341.0	-1366.63
0055.91	2877.27436	1425.69	2906180336.0	-1366.40
0056.10	2509.08948	1425.50	2914980341.0	-1366.21
0056.28	2627.27303	1425.32	2923780340.0	-1366.03
0056.48	2259.09091	1425.12	2932580340.0	-1365.83
0056.69	2290.91065	1424.91	2941380334.0	-1365.62
0056.92	2122.72486	1424.68	2950180344.0	-1365.39
0057.14	2340.90909	1424.46	2958980344.0	-1365.17
0057.38	2350.00214	1424.22	2967780336.0	-1364.93
0057.61	2313.63531	1423.99	2976580340.0	-1364.70
0057.83	2481.81875	1423.77	2985380338.0	-1364.48
0058.04	2386.36228	1423.56	2994180343.0	-1364.27
0058.24	2481.81987	1423.36	3002980337.0	-1364.07
0058.45	2622.72548	1423.15	3011780343.0	-1363.86
0058.66	2431.81901	1422.94	3020580340.0	-1363.65
0058.88	2886.36396	1422.72	3029380339.0	-1363.43
0059.12	3177.27237	1422.48	3038180340.0	-1363.19
0059.38	3386.36325	1422.22	3046980341.0	-1362.93
0059.63	4077.27458	1421.97	3055780337.0	-1362.68
0059.86	5063.63291	1421.74	3064580343.0	-1362.45
0060.05	6309.09306	1421.55	3073380340.0	-1362.26
0060.24	7831.82174	1421.36	3082180336.0	-1362.07
0060.45	10168.17142	1421.15	3090980345.0	-1361.86
0060.68	12786.37235	1420.92	3099780339.0	-1361.63
0060.89	14781.82994	1420.71	3108580332.0	-1361.42
0061.11	16409.08159	1420.49	3117380337.0	-1361.20
0061.31	17068.18182	1420.29	3126180337.0	-1361.00
0061.53	17286.35774	1420.07	3134980340.0	-1360.78
0061.75	16118.19098	1419.85	3143780335.0	-1360.56
0061.96	13886.35732	1419.64	3152580339.0	-1360.35
0062.18	11713.64036	1419.42	3161380336.0	-1360.13
0062.39	9218.17658	1419.21	3170180341.0	-1359.92
0062.61	7654.55328	1418.99	3178980332.0	-1359.70
0062.82	6381.81238	1418.78	3187780340.0	-1359.49
0063.07	6145.45524	1418.53	3196580339.0	-1359.24
0063.35	6159.09301	1418.25	3205380336.0	-1358.96
0063.61	6695.45378	1417.99	3214180337.0	-1358.70
0063.84	7804.54102	1417.76	3222980342.0	-1358.47
0064.02	8954.54851	1417.58	3231780339.0	-1358.29
0064.21	10581.82059	1417.39	3240580337.0	-1358.10
0064.41	12413.63213	1417.19	3249380340.0	-1357.90
0064.62	13895.46086	1416.98	3258180336.0	-1357.69
0064.84	14718.17513	1416.76	3266980340.0	-1357.47
0065.07	14981.81988	1416.53	3275780339.0	-1357.24
0065.30	14477.27766	1416.30	3284580336.0	-1357.01
0065.52	13118.17436	1416.08	3293380341.0	-1356.79
0065.74	11236.35981	1415.86	3302180344.0	-1356.57
0065.94	9618.18838	1415.66	3310980338.0	-1356.37
0066.15	8209.08811	1415.45	3319780341.0	-1356.16
0066.37	6604.54771	1415.23	3328580338.0	-1355.94
0066.58	6099.99861	1415.02	3337380340.0	-1355.73
0066.80	5349.99696	1414.80	3346180345.0	-1355.51
0067.02	5054.55062	1414.58	3354980336.0	-1355.29
0067.28	4872.72506	1414.32	3363780340.0	-1355.03
0067.52	4690.90962	1414.08	3372580339.0	-1354.80
0067.74	4331.81572	1413.86	3381380344.0	-1354.57
0067.93	4227.27705	1413.67	3390180335.0	-1354.38
0068.13	4468.18080	1413.47	3398980337.0	-1354.18
0068.34	4477.27120	1413.26	3407780340.0	-1353.97
0068.56	4236.36364	1413.04	3416580340.0	-1353.75
0068.78	4086.36224	1412.82	3425380343.0	-1353.53
0068.97	4190.90814	1412.63	3434180345.0	-1353.34
0069.18	4059.09414	1412.42	3442980338.0	-1353.13
0069.39	3995.45455	1412.21	3451780338.0	-1352.92
0069.62	4004.54727	1411.98	3460580334.0	-1352.69
0069.83	4013.63043	1411.77	3469380347.0	-1352.48
0070.05	4200.00382	1411.55	3478180339.0	-1352.26
0070.27	4272.72776	1411.33	3486980338.0	-1352.04
0070.49	4040.90955	1411.11	3495780337.0	-1351.82
0070.69	4240.90957	1410.91	3504580336.0	-1351.62
0070.96	4122.72399	1410.64	3513380343.0	-1351.35
0071.25	4059.09045	1410.35	3522180344.0	-1351.06
0071.50	4177.27652	1410.10	3530980336.0	-1350.81
0071.71	4104.54499	1409.89	3539780337.0	-1350.61
0071.89	4336.36019	1409.71	3548580344.0	-1350.42
0072.08	3890.90953	1409.52	3557380343.0	-1350.23
0072.29	4218.18421	1409.31	3566180338.0	-1350.02
0072.51	4136.36270	1409.09	3574980340.0	-1349.80
0072.73	4099.99860	1408.87	3583780343.0	-1349.58
0072.97	4268.18424	1408.63	3592580338.0	-1349.34
0073.21	4140.90862	1408.39	3601380339.0	-1349.10
0073.44	4309.08797	1408.16	3610180345.0	-1348.87
0073.64	4381.82017	1407.96	3618980341.0	-1348.67
0073.84	4150.00141	1407.76	3627780338.0	-1348.47
0074.05	4195.45312	1407.55	3636580341.0	-1348.26
0074.27	4372.72876	1407.33	3645380338.0	-1348.04
0074.49	4345.45504	1407.11	3654180337.0	-1347.82
0074.70	4363.63339	1406.90	3662980343.0	-1347.61
0074.96	4200.00000	1406.64	3671780343.0	-1347.35
0075.22	4322.72973	1406.38	3680580338.0	-1347.10
0075.46	4609.08881	1406.14	3689380342.0	-1346.85
0075.66	4359.09190	1405.94	3698180340.0	-1346.65
0075.85	4527.27530	1405.75	3706980335.0	-1346.46
0076.05	4349.99901	1405.55	3715780337.0	-1346.26
0076.26	4495.45301	1405.34	3724580340.0	-1346.06
0076.48	4677.27538	1405.12	3733380335.0	-1345.83
0076.69	4790.91236	1404.91	3742180329.0	-1345.62
0076.90	4813.63144	1404.70	3750980338.0	-1345.41
0077.13	4668.18182	1404.47	3759780338.0	-1345.19
0077.35	5209.08973	1404.25	3768580340.0	-1344.96
0077.57	4622.72727	1404.03	3777380340.0	-1344.74
0077.77	4754.54329	1403.83	3786180344.0	-1344.54
0077.98	4786.36690	1403.62	3794980338.0	-1344.33
0078.19	4863.65847	1403.41	3803780298.0	-1344.12
0078.41	4895.43285	1403.19	3812580337.0	-1343.90
0078.63	5027.27101	1402.97	3821380340.0	-1343.68
0078.91	4868.18182	1402.69	3830180340.0	-1343.40
0079.19	4927.27217	1402.41	3838980341.0	-1343.12
0079.42	4922.72839	1402.18	3847780339.0	-1342.89
0079.63	5031.81532	1401.97	3856580344.0	-1342.68
0079.80	5022.73184	1401.80	3865380336.0	-1342.51
0080.00	5077.26984	1401.60	3874180341.0	-1342.31
0080.21	5013.63864	1401.39	3882980337.0	-1342.10
0080.44	5199.99882	1401.16	3891780339.0	-1341.87
0080.66	5072.72612	1400.94	3900580341.0	-1341.65
0080.90	4900.00167	1400.70	3909380338.0	-1341.41
0081.12	5159.08974	1400.48	3918180340.0	-1341.19
0081.34	5150.00117	1400.26	3926980338.0	-1340.97
0081.56	5227.27273	1400.04	3935780338.0	-1340.75
0081.76	5295.45455	1399.84	3944580338.0	-1340.55
0081.97	5322.72667	1399.63	3953380339.0	-1340.34
0082.18	5145.45279	1399.42	3962180342.0	-1340.13
0082.40	5204.54605	1399.20	3970980341.0	-1339.91
0082.62	5445.45145	1398.98	3979780346.0	-1339.69
0082.87	5081.82049	1398.73	3988580342.0	-1339.44
0083.12	5527.27650	1398.48	3997380336.0	-1339.19
0083.34	5322.72727	1398.26	4006180336.0	-1338.97
0083.54	5363.64551	1398.06	4014980321.0	-1338.77
0083.73	5449.99071	1397.87	4023780336.0	-1338.58
0083.94	5190.90850	1397.66	4032580337.0	-1338.37
0084.15	5431.81756	1397.45	4041380338.0	-1338.16
0084.38	5377.26845	1397.22	4050180345.0	-1337.93
0084.58	5513.64200	1397.02	4058980336.0	-1337.73
0084.79	5477.27335	1396.81	4067780335.0	-1337.52
0085.00	5290.90608	1396.60	4076580340.0	-1337.32
0085.21	5763.63440	1396.39	4085380343.0	-1337.10
0085.43	5640.91101	1396.17	4094180340.0	-1336.88
0085.65	5436.36302	1395.95	4102980341.0	-1336.66
0085.88	5359.09091	1395.72	4111780341.0	-1336.43
0086.09	5413.63759	1395.51	4120580339.0	-1336.22
0086.30	5831.81951	1395.30	4129380337.0	-1336.01
0086.54	5609.08772	1395.06	4138180342.0	-1335.77
0086.81	5759.09353	1394.79	4146980338.0	-1335.50
0087.07	5472.72354	1394.53	4155780344.0	-1335.24
0087.31	5654.54738	1394.29	4164580341.0	-1335.00
0087.49	5422.72789	1394.11	4173380340.0	-1334.82
0087.67	5409.09091	1393.93	4182180340.0	-1334.64
0087.88	5472.72852	1393.72	4190980338.0	-1334.43
0088.09	5950.05477	1393.51	4199780257.0	-1334.22
0088.31	6031.76335	1393.29	4208580337.0	-1334.00
0088.54	5627.27145	1393.06	4217380339.0	-1333.77
0088.78	5695.45390	1392.82	4226180340.0	-1333.54
0089.01	5804.54611	1392.59	4234980339.0	-1333.30
0089.22	5668.17924	1392.38	4243780343.0	-1333.09
0089.43	5450.00434	1392.17	4252580336.0	-1332.88
0089.63	5586.36110	1391.97	4261380340.0	-1332.68
0089.84	5595.45709	1391.76	4270180336.0	-1332.47
0090.06	5745.45063	1391.54	4278980342.0	-1332.25
0090.28	5549.99874	1391.32	4287780344.0	-1332.03
0090.51	-11.20815	1391.09	1613047.0	-1331.80
0090.77	5559.09407	1390.83	10413042.0	-1331.54
0091.01	5250.00060	1390.59	19213041.0	-1331.30
0091.23	5336.36121	1390.37	28013045.0	-1331.08
0091.42	5681.81947	1390.18	36813043.0	-1330.89
0091.62	5327.26970	1389.98	45613048.0	-1330.69
0091.83	5563.64016	1389.77	54413042.0	-1330.49
0092.05	5695.45584	1389.55	63213040.0	-1330.26
0092.27	5059.08746	1389.33	72013046.0	-1330.04
0092.48	5154.54604	1389.12	80813045.0	-1329.83
0092.70	5727.27208	1388.90	89613046.0	-1329.62
0092.91	5436.36981	1388.69	98413036.0	-1329.40
0093.13	5290.90488	1388.47	107213043.0	-1329.18
0093.34	5200.00059	1388.26	116013042.0	-1328.97
0093.56	5372.72544	1388.04	124813045.0	-1328.75
0093.77	5249.99940	1387.83	133613046.0	-1328.54
0093.99	5254.54844	1387.61	142413041.0	-1328.32
0094.20	5549.99748	1387.40	151213045.0	-1328.11
0094.45	5368.22330	1387.15	160012977.0	-1327.86
0094.72	5159.04987	1386.88	168813047.0	-1327.59
0094.98	5449.99876	1386.62	177613049.0	-1327.33
0095.20	5386.36486	1386.40	186413047.0	-1327.11
0095.38	5404.54300	1386.22	195213051.0	-1326.93
0095.58	5418.18674	1386.02	204013043.0	-1326.73
0095.78	5559.09028	1385.82	212813044.0	-1326.53
0096.00	5540.90972	1385.60	221613043.0	-1326.31
0096.22	5149.99649	1385.38	230413049.0	-1326.09
0096.44	5677.27595	1385.16	239213044.0	-1325.87
0096.67	5263.63636	1384.93	248013044.0	-1325.64
0096.88	5231.81699	1384.72	256813046.0	-1325.43
0097.10	5250.00298	1384.50	265613041.0	-1325.21
0097.31	5563.63194	1384.29	274413048.0	-1325.01
0097.52	5386.36731	1384.08	283213042.0	-1324.80
0097.74	5104.54487	1383.86	292013043.0	-1324.57
0097.95	5240.90969	1383.65	300813042.0	-1324.36
0098.16	5540.91035	1383.44	309613040.0	-1324.15
0098.39	5268.17882	1383.21	318413045.0	-1323.92
0098.64	5404.54853	1382.96	327213040.0	-1323.67
0098.87	5386.36180	1382.73	336013043.0	-1323.44
0099.09	5168.17888	1382.51	344813048.0	-1323.22
0099.26	5268.18242	1382.34	353613047.0	-1323.05
0099.42	5450.00372	1382.18	362413041.0	-1322.89
0099.63	5227.27035	1381.97	371213045.0	-1322.68
0099.85	5381.81818	1381.75	380013045.0	-1322.46
0100.07	5268.18302	1381.53	388813043.0	-1322.25
0100.25	5450.00000	1381.35	397613043.0	-1322.06
0100.46	5259.09270	1381.14	406413040.0	-1321.85
0100.67	5431.81756	1380.93	415213041.0	-1321.64
0100.89	5263.63397	1380.71	424013045.0	-1321.42
0101.11	5309.09453	1380.49	432813039.0	-1321.20
0101.32	5318.17638	1380.28	441613048.0	-1320.99
0101.55	5372.72727	1380.05	450413048.0	-1320.76
0101.76	5272.72548	1379.84	459213051.0	-1320.55
0101.98	5009.09489	1379.62	468013044.0	-1320.33
0102.26	5404.54853	1379.34	476813039.0	-1320.05
0102.54	5418.17997	1379.06	485613042.0	-1319.77
0102.80	5122.73193	1378.80	494413034.0	-1319.51
0103.00	5231.81461	1378.60	503213040.0	-1319.31
0103.18	5363.63697	1378.42	512013039.0	-1319.13
0103.37	5286.36123	1378.23	520813043.0	-1318.94
0103.58	5327.27152	1378.02	529613045.0	-1318.74
0103.79	5299.99940	1377.81	538413046.0	-1318.52
0104.02	5222.73024	1377.58	547213041.0	-1318.29
0104.26	5109.09091	1377.34	556013041.0	-1318.05
0104.50	4872.72561	1377.10	564813044.0	-1317.81
0104.73	5186.36599	1376.87	573613040.0	-1317.58
0104.93	5263.63277	1376.67	582413046.0	-1317.38
0105.13	5113.63985	1376.47	591213040.0	-1317.18
0105.33	5363.63514	1376.27	600013042.0	-1316.98
0105.55	5299.99880	1376.05	608813044.0	-1316.76
0105.76	5354.54606	1375.84	617613043.0	-1316.55
0105.99	5472.72665	1375.61	626413044.0	-1316.32
0106.25	5145.45221	1375.35	635213048.0	-1316.06
0106.51	5400.00368	1375.09	644013042.0	-1315.80
0106.76	5159.08739	1374.84	652813048.0	-1315.55
0106.96	5150.00059	1374.64	661613047.0	-1315.35
0107.15	5186.36423	1374.45	670413046.0	-1315.17
0107.34	5172.72727	1374.26	679213046.0	-1314.97
0107.55	5431.82127	1374.05	688013041.0	-1314.76
0107.77	4954.54489	1373.83	696813042.0	-1314.54
0107.99	5059.09091	1373.61	705613042.0	-1314.32
0108.21	5181.81995	1373.39	714413039.0	-1314.10
0108.43	5072.72324	1373.17	723213046.0	-1313.88
0108.65	5345.45819	1372.95	732013040.0	-1313.66
0108.87	5018.17954	1372.73	740813044.0	-1313.44
0109.09	5231.81818	1372.51	749613044.0	-1313.22
0109.30	5031.82047	1372.30	758413040.0	-1313.01
0109.51	5272.72727	1372.09	767213040.0	-1312.80
0109.72	4877.27217	1371.88	776013041.0	-1312.59
0109.94	5077.26984	1371.66	784813046.0	-1312.37
0110.23	5068.18124	1371.37	793613047.0	-1312.08
0110.51	5277.27573	1371.09	802413042.0	-1311.80
0110.74	4977.26933	1370.86	811213048.0	-1311.57
0110.93	5100.00058	1370.67	820013047.0	-1311.38
0111.11	5431.82065	1370.49	828813043.0	-1311.20
0111.31	5336.36485	1370.29	837613041.0	-1311.00
0111.53	5349.99514	1370.07	846413049.0	-1310.78
0111.76	5140.91435	1369.84	855213040.0	-1310.55
0111.98	5222.72371	1369.62	864013046.0	-1310.33
0112.21	4827.27328	1369.39	872813045.0	-1310.10
0112.44	5268.18481	1369.16	881613040.0	-1309.87
0112.66	4909.08924	1368.94	890413043.0	-1309.65
0112.87	5359.09091	1368.73	899213043.0	-1309.44
0113.07	4995.45341	1368.53	908013045.0	-1309.25
0113.28	5063.63464	1368.32	916813048.0	-1309.03
0113.50	5013.63921	1368.10	925613043.0	-1308.81
0113.71	5145.45396	1367.89	934413044.0	-1308.60
0113.93	5195.45218	1367.67	943213048.0	-1308.38
0114.19	5240.91207	1367.41	952013043.0	-1308.13
0114.43	5190.91145	1367.17	960813039.0	-1307.88
0114.66	5131.81760	1366.94	969613040.0	-1307.65
0114.86	5018.17726	1366.74	978413048.0	-1307.45
0115.05	4909.09202	1366.55	987213046.0	-1307.26
0115.27	5131.81876	1366.33	996013045.0	-1307.04
0115.48	5009.08920	1366.12	1004813048.0	-1306.83
0115.70	5381.82185	1365.90	1013613042.0	-1306.61
0115.91	5095.45223	1365.69	1022413046.0	-1306.40
0116.11	5327.27515	1365.49	1031213042.0	-1306.20
0116.32	4990.90966	1365.28	1040013041.0	-1305.99
0116.54	5068.18124	1365.06	1048813042.0	-1305.77
0116.76	5399.99939	1364.84	1057613043.0	-1305.55
0116.97	5272.72488	1364.63	1066413047.0	-1305.34
0117.20	5004.54489	1364.40	1075213048.0	-1305.12
0117.41	5445.45826	1364.19	1084013042.0	-1304.91
0117.61	5054.54660	1363.99	1092813040.0	-1304.70
0117.85	5154.54428	1363.75	1101613042.0	-1304.46
0118.12	5227.27154	1363.48	1110413044.0	-1304.19
0118.40	5118.18531	1363.20	1119213038.0	-1303.91
0118.63	5099.99652	1362.97	1128013044.0	-1303.68
0118.82	4968.18408	1362.78	1136813040.0	-1303.49
0118.99	4936.36195	1362.61	1145613043.0	-1303.32
0119.20	5259.09151	1362.40	1154413042.0	-1303.11
0119.40	5009.09319	1362.20	1163213038.0	-1302.91
0119.63	5172.72081	1361.97	1172013049.0	-1302.68
0119.86	4995.45909	1361.74	1180813041.0	-1302.45
0120.11	5018.18125	1361.49	1189613042.0	-1302.20
0120.34	5040.91081	1361.26	1198413039.0	-1301.97
0120.55	5327.26910	1361.05	1207213045.0	-1301.76
0120.75	5136.36364	1360.85	1216013045.0	-1301.57
0120.95	5049.99943	1360.65	1224813046.0	-1301.36
0121.16	5118.18414	1360.44	1233613042.0	-1301.15
0121.38	5268.18242	1360.22	1242413041.0	-1300.93
0121.60	5372.72483	1360.00	1251213045.0	-1300.71
0121.84	5250.00179	1359.76	1260013042.0	-1300.47
0122.11	4749.99784	1359.49	1268813046.0	-1300.20
0122.34	5318.18605	1359.26	1277613039.0	-1299.97
0122.57	4936.35915	1359.03	1286413047.0	-1299.74
0122.76	4986.36477	1358.84	1295213045.0	-1299.55
0122.96	5031.81875	1358.64	1304013044.0	-1299.35
0123.16	5004.54659	1358.44	1312813042.0	-1299.15
0123.38	5199.99705	1358.22	1321613047.0	-1298.93
0123.59	5068.18470	1358.01	1330413042.0	-1298.72
0123.80	4854.54656	1357.80	1339213040.0	-1298.51
0124.02	5227.27273	1357.58	1348013040.0	-1298.29
0124.24	4827.27328	1357.36	1356813039.0	-1298.08
0124.46	4959.08922	1357.14	1365613042.0	-1297.85
0124.66	5340.90545	1356.94	1374413048.0	-1297.65
0124.89	4990.91023	1356.71	1383213046.0	-1297.42
0125.10	5127.27156	1356.50	1392013048.0	-1297.21
0125.32	5113.63927	1356.28	1400813043.0	-1296.99
0125.53	5168.18064	1356.07	1409613045.0	-1296.78
0125.78	4927.27777	1355.82	1418413036.0	-1296.53
0126.05	5109.08568	1355.55	1427213045.0	-1296.26
0126.31	5045.45627	1355.29	1436013042.0	-1296.00
0126.53	4922.72727	1355.07	1444813042.0	-1295.78
0126.72	5018.17897	1354.88	1453613047.0	-1295.59
0126.91	4950.00281	1354.69	1462413042.0	-1295.40
0127.12	5213.63636	1354.48	1471213042.0	-1295.19
0127.33	5127.27389	1354.27	1480013040.0	-1294.98
0127.54	5027.27044	1354.06	1488813044.0	-1294.77
0127.75	4963.63693	1353.85	1497613043.0	-1294.56
0127.98	4772.72782	1353.62	1506413042.0	-1294.33
0128.20	4968.18012	1353.40	1515213045.0	-1294.11
0128.43	4977.27556	1353.17	1524013040.0	-1293.89
0128.63	5059.08976	1352.97	1532813042.0	-1293.68
0128.84	5059.09321	1352.76	1541613038.0	-1293.47
0129.06	4959.08471	1352.54	1550413049.0	-1293.25
0129.27	4954.54940	1352.33	1559213042.0	-1293.04
0129.49	4972.72558	1352.11	1568013045.0	-1292.82
0129.73	4750.00162	1351.87	1576813042.0	-1292.58
0129.97	5340.90788	1351.63	1585613044.0	-1292.34
0130.21	5259.09330	1351.39	1594413040.0	-1292.10
0130.41	4845.45289	1351.19	1603213043.0	-1291.90
0130.60	4768.17965	1351.00	1612013047.0	-1291.71
0130.81	5190.91263	1350.79	1620813041.0	-1291.50
0131.03	4845.45510	1350.57	1629613040.0	-1291.28
0131.25	4945.45398	1350.35	1638413041.0	-1291.06
0131.46	5022.72613	1350.14	1647213043.0	-1290.85
0131.66	4995.45511	1349.94	1656013042.0	-1290.65
0131.86	4918.18126	1349.74	1664813043.0	-1290.45
0132.08	4831.81708	1349.52	1673613045.0	-1290.23
0132.30	4963.64031	1349.30	1682413038.0	-1290.01
0132.51	4881.81763	1349.09	1691213039.0	-1289.80
0132.73	4940.90909	1348.87	1700013039.0	-1289.58
0132.95	5059.08574	1348.65	1708813048.0	-1289.36
0133.16	4904.55270	1348.44	1717613035.0	-1289.15
0133.38	4981.81422	1348.22	1726413042.0	-1288.93
0133.65	5027.27273	1347.95	1735213042.0	-1288.66
0133.94	4845.45234	1347.66	1744013046.0	-1288.37
0134.18	5068.18470	1347.42	1752813041.0	-1288.13
0134.38	5109.08743	1347.22	1761613047.0	-1287.93
0134.56	5036.36707	1347.04	1770413041.0	-1287.75
0134.75	4886.35975	1346.85	1779213048.0	-1287.56
0134.97	4909.09370	1346.63	1788013043.0	-1287.35
0135.19	4781.81438	1346.41	1796813050.0	-1287.12
0135.41	4922.72951	1346.19	1805613046.0	-1286.90
0135.65	4913.63636	1345.95	1814413046.0	-1286.66
0135.89	4686.36630	1345.71	1823213041.0	-1286.42
0136.12	4927.27049	1345.48	1832013045.0	-1286.19
0136.32	4859.09146	1345.28	1840813044.0	-1285.99
0136.53	5027.27387	1345.07	1849613042.0	-1285.78
0136.73	4581.81662	1344.87	1858413045.0	-1285.58
0136.94	5013.63579	1344.66	1867213046.0	-1285.37
0137.16	4868.18071	1344.44	1876013048.0	-1285.15
0137.38	4918.18405	1344.22	1884813044.0	-1284.93
0137.64	5154.54897	1343.96	1893613038.0	-1284.67
0137.90	5068.17836	1343.70	1902413044.0	-1284.41
0138.13	4863.63526	1343.47	1911213046.0	-1284.18
0138.33	5236.36602	1343.27	1920013042.0	-1283.98
0138.52	4849.99669	1343.08	1928813048.0	-1283.79
0138.72	4913.64027	1342.88	1937613041.0	-1283.59
0138.93	4713.63261	1342.67	1946413048.0	-1283.38
0139.16	4831.82203	1342.44	1955213041.0	-1283.15
0139.37	4854.54545	1342.23	1964013041.0	-1282.94
0139.59	5113.63462	1342.01	1972813044.0	-1282.72
0139.80	4968.18521	1341.80	1981613038.0	-1282.51
0140.02	5218.18063	1341.58	1990413040.0	-1282.29
0140.23	4931.81482	1341.37	1999213046.0	-1282.08
0140.45	5095.45397	1341.15	2008013047.0	-1281.86
0140.67	4840.90964	1340.93	2016813046.0	-1281.64
0140.89	4818.18401	1340.71	2025613042.0	-1281.43
0141.10	4586.36312	1340.50	2034413043.0	-1281.21
0141.33	4836.36254	1340.27	2043213045.0	-1280.98
0141.61	4854.54380	1339.99	2052013048.0	-1280.70
0141.87	5309.09091	1339.73	2060813048.0	-1280.44
0142.10	4600.00157	1339.50	2069613045.0	-1280.21
0142.30	5127.27506	1339.30	2078413041.0	-1280.01
0142.48	4990.90852	1339.12	2087213042.0	-1279.83
0142.68	4813.63582	1338.92	2096013043.0	-1279.63
0142.89	4890.90965	1338.71	2104813042.0	-1279.42
0143.11	4972.72614	1338.49	2113613044.0	-1279.20
0143.34	4840.91019	1338.26	2122413042.0	-1278.97
0143.56	4740.90801	1338.04	2131213044.0	-1278.75
0143.79	4686.36630	1337.81	2140013039.0	-1278.52
0144.01	4649.99683	1337.59	2148813045.0	-1278.30
0144.21	5068.18355	1337.39	2157613042.0	-1278.10
0144.42	4781.81710	1337.18	2166413044.0	-1277.89
0144.62	4727.27434	1336.98	2175213041.0	-1277.69
0144.84	4922.72559	1336.76	2184013044.0	-1277.47
0145.06	4727.27434	1336.54	2192813041.0	-1277.25
0145.29	4840.90579	1336.31	2201613047.0	-1277.02
0145.54	4718.18343	1336.06	2210413044.0	-1276.77
0145.78	5054.54316	1335.82	2219213048.0	-1276.53
0146.00	4963.64031	1335.60	2228013041.0	-1276.31
0146.21	4949.99775	1335.39	2236813045.0	-1276.10
0146.40	4504.54801	1335.20	2245613040.0	-1275.91
0146.60	4754.54113	1335.00	2254413048.0	-1275.71
0146.82	4813.64183	1334.78	2263213038.0	-1275.49
0147.04	4781.81546	1334.56	2272013043.0	-1275.27
0147.25	4709.08877	1334.35	2280813047.0	-1275.06
0147.45	4840.91129	1334.15	2289613043.0	-1274.86
0147.66	4949.99944	1333.94	2298413044.0	-1274.65
0147.87	4577.27273	1333.73	2307213044.0	-1274.44
0148.10	4790.90964	1333.50	2316013043.0	-1274.21
0148.31	4609.08934	1333.29	2324813046.0	-1274.00
0148.53	4631.82081	1333.07	2333613041.0	-1273.78
0148.75	4686.36364	1332.85	2342413041.0	-1273.56
0148.96	4709.08823	1332.64	2351213046.0	-1273.35
0149.20	4972.72784	1332.40	2360013045.0	-1273.11
0149.48	4763.63528	1332.12	2368813047.0	-1272.83
0149.74	5054.54660	1331.86	2377613045.0	-1272.57
0149.96	4777.27164	1331.64	2386413047.0	-1272.35
0150.15	4836.36638	1331.45	2395213042.0	-1272.16
0150.34	4745.45347	1331.26	2404013044.0	-1271.97
0150.53	4690.90696	1331.07	2412813048.0	-1271.78
0150.75	4945.45848	1330.85	2421613041.0	-1271.56
0150.97	4531.81870	1330.63	2430413040.0	-1271.34
0151.20	4836.36309	1330.40	2439213041.0	-1271.11
0151.44	4500.00000	1330.16	2448013041.0	-1270.87
0151.67	4659.08720	1329.93	2456813048.0	-1270.64
0151.89	4609.09248	1329.71	2465613045.0	-1270.42
0152.10	4886.36475	1329.50	2474413043.0	-1270.22
0152.30	4586.36364	1329.30	2483213043.0	-1270.01
0152.51	4818.18072	1329.09	2492013045.0	-1269.80
0152.73	4722.72942	1328.87	2500813041.0	-1269.58
0152.95	4749.99838	1328.65	2509613044.0	-1269.37
0153.18	4595.45768	1328.42	2518413038.0	-1269.13
0153.44	4599.99895	1328.16	2527213040.0	-1268.87
0153.67	4927.27105	1327.93	2536013043.0	-1268.64
0153.90	4627.27641	1327.70	2544813036.0	-1268.41
0154.08	4777.26458	1327.52	2553613051.0	-1268.23
0154.28	4700.00427	1327.32	2562413043.0	-1268.03
0154.49	4481.82022	1327.11	2571213039.0	-1267.82
0154.72	4727.26789	1326.88	2580013048.0	-1267.59
0154.93	4336.36610	1326.67	2588813043.0	-1267.38
0155.14	4568.18182	1326.46	2597613043.0	-1267.17
0155.36	4636.36311	1326.24	2606413044.0	-1266.96
0155.56	4431.82120	1326.04	2615213038.0	-1266.75
0155.79	4631.81555	1325.81	2624013043.0	-1266.52
0156.00	4563.63481	1325.60	2632813046.0	-1266.31
0156.21	4709.09358	1325.39	2641613041.0	-1266.10
0156.43	4736.36148	1325.17	2650413045.0	-1265.88
0156.65	4913.63692	1324.95	2659213044.0	-1265.66
0156.86	4731.81603	1324.74	2668013048.0	-1265.45
0157.11	4668.18606	1324.49	2676813040.0	-1265.20
0157.39	4740.90694	1324.21	2685613044.0	-1264.92
0157.62	4513.63636	1323.98	2694413044.0	-1264.69
0157.84	4854.54490	1323.76	2703213045.0	-1264.47
0158.02	4540.90961	1323.58	2712013044.0	-1264.29
0158.21	4581.81766	1323.39	2720813045.0	-1264.10
0158.42	4418.17981	1323.18	2729613049.0	-1263.89
0158.65	4663.63848	1322.95	2738413045.0	-1263.66
0158.87	4840.90964	1322.73	2747213044.0	-1263.45
0159.08	4122.72962	1322.52	2756013039.0	-1263.23
0159.31	4809.08982	1322.29	2764813041.0	-1263.00
0159.53	4550.00103	1322.07	2773613039.0	-1262.78
0159.75	4863.63526	1321.85	2782413041.0	-1262.56
0159.96	4704.54599	1321.64	2791213040.0	-1262.35
0160.17	4509.09040	1321.43	2800013041.0	-1262.14
0160.38	4790.90855	1321.22	2808813042.0	-1261.93
0160.59	4618.18234	1321.01	2817613041.0	-1261.72
0160.80	4699.99947	1320.80	2826413042.0	-1261.51
0161.03	4818.18182	1320.57	2835213042.0	-1261.28
0161.28	4827.27273	1320.32	2844013042.0	-1261.03
0161.52	4622.72465	1320.08	2852813047.0	-1260.79
0161.73	4495.45403	1319.87	2861613048.0	-1260.58
0161.92	4722.72835	1319.68	2870413046.0	-1260.39
0162.13	4586.36312	1319.47	2879213047.0	-1260.18
0162.35	4422.72979	1319.25	2888013042.0	-1259.96
0162.56	4468.18080	1319.04	2896813044.0	-1259.75
0162.77	4622.72832	1318.83	2905613042.0	-1259.54
0162.97	4568.18026	1318.63	2914413045.0	-1259.34
0163.17	4750.00162	1318.43	2923213042.0	-1259.14
0163.39	4513.63482	1318.21	2932013045.0	-1258.92
0163.61	4577.27377	1317.99	2940813043.0	-1258.70
0163.83	4490.90909	1317.77	2949613043.0	-1258.48
0164.05	4772.72782	1317.55	2958413042.0	-1258.26
0164.28	4604.54284	1317.32	2967213047.0	-1258.03
0164.48	4545.45713	1317.12	2976013042.0	-1257.83
0164.70	4690.90696	1316.90	2984813046.0	-1257.61
0165.00	4572.73039	1316.60	2993613040.0	-1257.31
0165.29	4590.90700	1316.31	3002413044.0	-1257.02
0165.54	4927.27273	1316.06	3011213044.0	-1256.77
0165.73	4540.90806	1315.87	3020013046.0	-1256.58
0165.91	4690.91229	1315.69	3028813040.0	-1256.40
0166.09	4636.36311	1315.51	3037613041.0	-1256.22
0166.30	4363.63736	1315.30	3046413039.0	-1256.01
0166.52	4386.35765	1315.08	3055213051.0	-1255.79
0166.75	4568.18753	1314.85	3064013040.0	-1255.56
0167.00	4549.99793	1314.60	3072813044.0	-1255.31
0167.24	4663.63530	1314.36	3081613046.0	-1255.07
0167.47	4477.27324	1314.13	3090413045.0	-1254.84
0167.67	4631.81818	1313.93	3099213045.0	-1254.64
0167.87	4645.45455	1313.73	3108013045.0	-1254.44
0168.07	4522.72522	1313.53	3116813049.0	-1254.24
0168.28	4604.54755	1313.32	3125613045.0	-1254.03
0168.51	4759.09253	1313.09	3134413042.0	-1253.80
0168.73	4409.08890	1312.87	3143213046.0	-1253.58
0169.01	4681.82244	1312.59	3152013038.0	-1253.30
0169.27	4427.26870	1312.33	3160813046.0	-1253.05
0169.50	4640.91067	1312.10	3169613043.0	-1252.82
0169.70	4286.36558	1311.90	3178413039.0	-1252.61
0169.88	4413.63135	1311.72	3187213049.0	-1252.43
0170.09	4490.91164	1311.51	3196013044.0	-1252.22
0170.30	4663.63636	1311.30	3204813044.0	-1252.01
0170.52	4440.91010	1311.08	3213613042.0	-1251.79
0170.73	4386.36314	1310.87	3222413043.0	-1251.58
0170.95	4513.63585	1310.65	3231213044.0	-1251.36
0171.18	4800.00000	1310.42	3240013044.0	-1251.13
0171.41	4372.72827	1310.19	3248813042.0	-1250.90
0171.62	4518.17822	1309.98	3257613049.0	-1250.69
0171.82	4522.73138	1309.78	3266413041.0	-1250.49
0172.03	4749.99946	1309.57	3275213042.0	-1250.28
0172.25	4672.72674	1309.35	3284013043.0	-1250.06
0172.46	4690.91016	1309.14	3292813041.0	-1249.85
0172.70	4440.90707	1308.90	3301613045.0	-1249.61
0172.99	4763.63636	1308.61	3310413045.0	-1249.33
0173.25	4481.81513	1308.35	3319213051.0	-1249.06
0173.48	4418.18182	1308.12	3328013051.0	-1248.83
0173.67	4481.82277	1307.93	3336813042.0	-1248.64
0173.86	4577.27117	1307.74	3345613045.0	-1248.46
0174.06	4731.81979	1307.54	3354413042.0	-1248.25
0174.28	4704.54385	1307.32	3363213045.0	-1248.03
0174.49	4527.27273	1307.11	3372013045.0	-1247.82
0174.72	4350.00148	1306.88	3380813042.0	-1247.59
0174.95	4636.36469	1306.65	3389613040.0	-1247.36
0175.18	4340.90712	1306.42	3398413044.0	-1247.13
0175.40	4327.27076	1306.20	3407213048.0	-1246.91
0175.60	4649.99947	1306.00	3416013049.0	-1246.71
0175.80	4277.27564	1305.80	3424813043.0	-1246.51
0176.01	4640.90962	1305.59	3433613042.0	-1246.30
0176.23	4340.91057	1305.37	3442413039.0	-1246.08
0176.45	4627.27220	1305.15	3451213040.0	-1245.86
0176.68	4559.08884	1304.92	3460013044.0	-1245.63
0176.94	4727.27541	1304.66	3468813039.0	-1245.37
0177.18	4440.90909	1304.42	3477613039.0	-1245.14
0177.40	4531.81767	1304.20	3486413040.0	-1244.91
0177.60	4368.18182	1304.00	3495213040.0	-1244.71
0177.80	4418.18031	1303.80	3504013043.0	-1244.51
0178.00	4668.18129	1303.60	3512813044.0	-1244.31
0178.22	4327.27273	1303.38	3521613044.0	-1244.09
0178.44	4486.36109	1303.16	3530413049.0	-1243.87
0178.64	4450.00202	1302.96	3539213045.0	-1243.67
0178.85	4436.36414	1302.75	3548013044.0	-1243.46
0179.07	4431.81969	1302.53	3556813041.0	-1243.25
0179.27	4354.54496	1302.33	3565613042.0	-1243.04
0179.49	4568.18234	1302.11	3574413041.0	-1242.82
0179.71	4549.99948	1301.89	3583213042.0	-1242.60
0179.93	4209.09043	1301.67	3592013043.0	-1242.38
0180.15	4413.63787	1301.45	3600813040.0	-1242.16
0180.35	4145.45360	1301.25	3609613042.0	-1241.96
0180.61	4481.81462	1300.99	3618413049.0	-1241.70
0180.89	4563.64051	1300.71	3627213041.0	-1241.42
0181.15	4081.81865	1300.45	3636013040.0	-1241.16
0181.37	4322.72482	1300.23	3644813045.0	-1240.94
0181.56	4040.90725	1300.04	3653613049.0	-1240.75
0181.75	4600.00366	1299.85	3662413042.0	-1240.56
0181.95	4545.45661	1299.65	3671213038.0	-1240.36
0182.17	4309.08552	1299.43	3680013049.0	-1240.14
0182.39	4281.82110	1299.21	3688813043.0	-1239.92
0182.61	4181.81771	1298.99	3697613044.0	-1239.70
0182.86	4459.09294	1298.74	3706413040.0	-1239.45
0183.09	4249.99759	1298.51	3715213045.0	-1239.22
0183.31	4568.18234	1298.29	3724013044.0	-1239.00
0183.51	4163.63684	1298.09	3732813043.0	-1238.80
0183.71	4409.08890	1297.89	3741613047.0	-1238.60
0183.92	4536.36673	1297.68	3750413041.0	-1238.39
0184.14	4481.81818	1297.46	3759213041.0	-1238.17
0184.37	4213.63588	1297.23	3768013042.0	-1237.94
0184.61	4527.27221	1296.99	3776813043.0	-1237.70
0184.87	4486.36364	1296.73	3785613043.0	-1237.44
0185.12	4368.18331	1296.48	3794413040.0	-1237.19
0185.32	4318.18133	1296.28	3803213041.0	-1236.99
0185.51	4568.18026	1296.09	3812013044.0	-1236.80
0185.70	4349.99852	1295.90	3820813047.0	-1236.61
0185.92	4300.00147	1295.68	3829613044.0	-1236.40
0186.13	4322.72826	1295.47	3838413042.0	-1236.18
0186.35	4118.18229	1295.25	3847213041.0	-1235.96
0186.56	4036.36410	1295.04	3856013040.0	-1235.75
0186.78	4059.08814	1294.82	3864813046.0	-1235.53
0186.99	4236.36460	1294.61	3873613044.0	-1235.32
0187.22	4195.45455	1294.38	3882413044.0	-1235.09
0187.42	4327.27322	1294.18	3891213043.0	-1234.89
0187.64	3972.72592	1293.96	3900013046.0	-1234.67
0187.85	4372.73025	1293.75	3908813040.0	-1234.46
0188.06	4472.72575	1293.54	3917613043.0	-1234.25
0188.28	4631.81555	1293.32	3926413048.0	-1234.03
0188.54	4395.45804	1293.06	3935213041.0	-1233.78
0188.82	4340.90909	1292.78	3944013041.0	-1233.49
0189.07	4113.63636	1292.53	3952813041.0	-1233.24
0189.27	4468.18131	1292.33	3961613042.0	-1233.04
0189.47	4418.18282	1292.13	3970413040.0	-1232.84
0189.66	4131.81677	1291.94	3979213043.0	-1232.66
0189.87	4477.27324	1291.73	3988013042.0	-1232.44
0190.09	4022.72636	1291.51	3996813044.0	-1232.22
0190.31	4336.36364	1291.29	4005613044.0	-1232.00
0190.53	4059.08953	1291.07	4014413047.0	-1231.78
0190.76	4359.09041	1290.84	4023213048.0	-1231.55
0190.99	4213.63972	1290.61	4032013041.0	-1231.33
0191.20	4049.99724	1290.40	4040813047.0	-1231.11
0191.39	4386.36413	1290.21	4049613046.0	-1230.92
0191.61	4272.73019	1289.99	4058413040.0	-1230.70
0191.82	4263.63539	1289.78	4067213042.0	-1230.49
0192.05	4249.99807	1289.55	4076013046.0	-1230.26
0192.25	4486.36619	1289.35	4084813041.0	-1230.06
0192.50	4377.27173	1289.10	4093613043.0	-1229.81
0192.74	4363.63537	1288.86	4102413045.0	-1229.57
0192.97	4531.81715	1288.63	4111213047.0	-1229.34
0193.18	4350.00198	1288.42	4120013043.0	-1229.13
0193.37	4472.72626	1288.23	4128813045.0	-1228.94
0193.57	4381.81768	1288.03	4137613046.0	-1228.74
0193.79	4386.36364	1287.81	4146413046.0	-1228.53
0194.01	4359.09091	1287.59	4155213046.0	-1228.30
0194.22	4268.18424	1287.38	4164013041.0	-1228.09
0194.42	4122.72680	1287.18	4172813042.0	-1227.89
0194.62	4068.18274	1286.98	4181613040.0	-1227.69
0194.85	4231.81866	1286.75	4190413039.0	-1227.46
0195.06	4318.17887	1286.54	4199213045.0	-1227.25
0195.27	4145.45596	1286.33	4208013042.0	-1227.04
0195.49	4445.45455	1286.11	4216813042.0	-1226.82
0195.70	4113.63590	1285.90	4225613043.0	-1226.61
0195.93	4254.54836	1285.67	4234413037.0	-1226.39
0196.14	4222.72391	1285.46	4243213044.0	-1226.17
0196.43	4068.18043	1285.17	4252013047.0	-1225.89
0196.70	4254.54787	1284.90	4260813042.0	-1225.61
0196.95	4163.63352	1284.65	4269613048.0	-1225.36
0197.15	4568.18493	1284.45	4278413042.0	-1225.16
0197.33	4336.36462	1284.27	4287213040.0	-1224.98
0197.53	-8.27779	1284.07	1045748.0	-1224.79
0197.73	4368.18331	1283.87	9845745.0	-1224.58
0197.96	4245.45165	1283.64	18645751.0	-1224.35
0198.18	4322.72875	1283.42	27445748.0	-1224.13
0198.42	4259.09236	1283.18	36245745.0	-1223.89
0198.65	4072.72588	1282.95	45045748.0	-1223.66
0198.88	4081.82050	1282.72	53845743.0	-1223.43
0199.08	4336.36216	1282.52	62645746.0	-1223.23
0199.28	4049.99954	1282.32	71445747.0	-1223.03
0199.50	4177.28032	1282.10	80245731.0	-1222.82
0199.70	4149.99293	1281.90	89045746.0	-1222.61
0199.93	4240.91054	1281.67	97845743.0	-1222.38
0200.15	4327.26978	1281.45	106645749.0	-1222.16
0200.42	4245.45696	1281.18	115445744.0	-1221.89
0200.67	4022.72453	1280.93	124245750.0	-1221.64
0200.90	4140.91238	1280.70	133045743.0	-1221.41
0201.10	4254.54304	1280.50	141845748.0	-1221.21
0201.29	4136.36317	1280.31	150645749.0	-1221.02
0201.48	4345.45603	1280.12	159445746.0	-1220.83
0201.71	4154.54545	1279.89	168245746.0	-1220.60
0201.92	4404.54545	1279.68	177045746.0	-1220.39
0202.14	3963.63636	1279.46	185845746.0	-1220.17
0202.35	4286.36364	1279.25	194645746.0	-1219.96
0202.58	4013.63408	1279.02	203445751.0	-1219.73
0202.80	4077.27551	1278.80	212245745.0	-1219.52
0203.01	3936.36453	1278.59	221045743.0	-1219.30
0203.22	4245.45165	1278.38	229845749.0	-1219.09
0203.44	4368.18331	1278.16	238645746.0	-1218.87
0203.65	4527.27221	1277.95	247445747.0	-1218.66
0203.86	4063.63636	1277.74	256245747.0	-1218.45
0204.11	4204.54498	1277.49	265045748.0	-1218.21
0204.40	4222.72631	1277.20	273845750.0	-1217.92
0204.66	4368.18380	1276.94	282645746.0	-1217.65
0204.89	4236.36075	1276.71	291445752.0	-1217.42
0205.07	4481.82073	1276.53	300245747.0	-1217.24
0205.26	4240.91005	1276.34	309045745.0	-1217.05
0205.45	4122.72634	1276.15	317845747.0	-1216.86
0205.67	3900.00044	1275.93	326645746.0	-1216.64
0205.89	4345.45405	1275.71	335445747.0	-1216.42
0206.12	4118.18182	1275.48	344245747.0	-1216.19
0206.35	4309.09336	1275.25	353045742.0	-1215.97
0206.57	4040.90588	1275.03	361845749.0	-1215.74
0206.79	4163.63873	1274.81	370645744.0	-1215.52
0206.99	4118.18041	1274.61	379445747.0	-1215.32
0207.19	3963.63636	1274.41	388245747.0	-1215.12
0207.40	4263.63830	1274.20	397045743.0	-1214.91
0207.64	3854.54414	1273.96	405845746.0	-1214.68
0207.85	4154.54545	1273.75	414645746.0	-1214.46
0208.08	4172.72632	1273.52	423445748.0	-1214.23
0208.33	4086.36271	1273.27	432245750.0	-1213.98
0208.57	4100.00047	1273.03	441045749.0	-1213.74
0208.80	4049.99770	1272.80	449845754.0	-1213.51
0208.99	4172.73059	1272.61	458645747.0	-1213.32
0209.20	4009.08863	1272.40	467445752.0	-1213.11
0209.40	3972.72908	1272.20	476245748.0	-1212.91
0209.62	4295.45308	1271.98	485045751.0	-1212.69
0209.84	4209.09043	1271.76	493845752.0	-1212.47
0210.04	3950.00449	1271.56	502645742.0	-1212.27
0210.25	4313.63440	1271.35	511445746.0	-1212.06
0210.46	4204.54641	1271.14	520245744.0	-1211.85
0210.69	3936.36364	1270.91	529045744.0	-1211.62
0210.90	4122.72634	1270.70	537845746.0	-1211.41
0211.12	4268.18133	1270.48	546645747.0	-1211.19
0211.33	4118.18088	1270.27	555445749.0	-1210.98
0211.55	4259.09381	1270.05	564245743.0	-1210.76
0211.76	4127.27179	1269.84	573045745.0	-1210.55
0212.00	3936.36095	1269.60	581845751.0	-1210.31
0212.28	3813.63853	1269.32	590645746.0	-1210.03
0212.54	4090.90956	1269.06	599445745.0	-1209.77
0212.76	4099.99534	1268.84	608245755.0	-1209.55
0212.95	4031.82322	1268.65	617045744.0	-1209.36
0213.13	3899.99956	1268.47	625845745.0	-1209.18
0213.34	3840.90778	1268.26	634645748.0	-1208.97
0213.56	4127.27273	1268.04	643445748.0	-1208.75
0213.77	3918.17959	1267.83	652245753.0	-1208.54
0214.00	4100.00326	1267.60	661045746.0	-1208.31
0214.24	4199.99905	1267.36	669845748.0	-1208.07
0214.47	4204.54689	1267.13	678645745.0	-1207.84
0214.68	4118.18182	1266.92	687445745.0	-1207.63
0214.89	4181.81676	1266.71	696245748.0	-1207.42
0215.09	3763.63636	1266.51	705045748.0	-1207.22
0215.31	4040.90955	1266.29	713845747.0	-1207.00
0215.51	4018.18182	1266.09	722645747.0	-1206.80
0215.74	3986.36364	1265.86	731445747.0	-1206.57
0215.98	4131.81724	1265.62	740245749.0	-1206.33
0216.24	3818.18225	1265.36	749045748.0	-1206.07
0216.47	4254.54449	1265.13	757845750.0	-1205.84
0216.68	3986.36318	1264.92	766645751.0	-1205.63
0216.88	3659.09174	1264.72	775445749.0	-1205.44
0217.07	3995.45636	1264.53	784245745.0	-1205.24
0217.28	4218.17846	1264.32	793045752.0	-1205.03
0217.50	4209.09426	1264.10	801845745.0	-1204.81
0217.72	3999.99818	1263.88	810645749.0	-1204.59
0217.93	4045.45960	1263.67	819445738.0	-1204.38
0218.15	4131.81443	1263.45	828245746.0	-1204.16
0218.36	4109.09044	1263.24	837045747.0	-1203.95
0218.58	3954.54725	1263.02	845845743.0	-1203.73
0218.79	3927.27005	1262.81	854645749.0	-1203.52
0219.02	4072.72912	1262.58	863445745.0	-1203.29
0219.23	3890.90688	1262.37	872245750.0	-1203.08
0219.43	3981.81954	1262.17	881045747.0	-1202.88
0219.65	4099.99953	1261.95	889845748.0	-1202.66
0219.91	4018.18090	1261.69	898645750.0	-1202.40
0220.18	4036.36639	1261.42	907445744.0	-1202.13
0220.43	4081.81493	1261.17	916245751.0	-1201.88
0220.64	3750.00341	1260.96	925045743.0	-1201.67
0220.82	4031.81818	1260.78	933845743.0	-1201.49
0221.01	3881.81686	1260.59	942645746.0	-1201.30
0221.22	3990.90728	1260.38	951445750.0	-1201.09
0221.45	4295.45699	1260.15	960245745.0	-1200.86
0221.67	3872.72419	1259.93	969045752.0	-1200.64
0221.90	4190.91195	1259.70	977845746.0	-1200.42
0222.12	3663.63595	1259.48	986645747.0	-1200.19
0222.34	3904.54679	1259.26	995445744.0	-1199.97
0222.54	3927.27139	1259.06	1004245747.0	-1199.77
0222.74	3845.45411	1258.86	1013045748.0	-1199.57
0222.97	3981.82044	1258.63	1021845743.0	-1199.34
0223.18	4318.17838	1258.42	1030645750.0	-1199.13
0223.40	4090.91002	1258.20	1039445748.0	-1198.91
0223.61	3863.63549	1257.99	1048245750.0	-1198.70
0223.86	3981.82090	1257.74	1057045744.0	-1198.45
0224.10	3868.18094	1257.50	1065845746.0	-1198.21
0224.33	3909.09002	1257.27	1074645748.0	-1197.99
0224.54	3772.72813	1257.06	1083445746.0	-1197.78
0224.73	3868.18050	1256.87	1092245749.0	-1197.58
0224.93	4013.63682	1256.67	1101045748.0	-1197.38
0225.16	3822.72858	1256.44	1109845745.0	-1197.16
0225.37	4018.18182	1256.23	1118645745.0	-1196.94
0225.57	3959.08956	1256.03	1127445748.0	-1196.74
0225.77	3572.72646	1255.83	1136245750.0	-1196.54
0225.97	3622.74209	1255.63	1145045714.0	-1196.34
0226.20	3963.62105	1255.40	1153845748.0	-1196.11
0226.42	3904.54545	1255.18	1162645748.0	-1195.89
0226.62	3918.18271	1254.98	1171445746.0	-1195.69
0226.85	3977.27454	1254.75	1180245742.0	-1195.46
0227.07	3940.90551	1254.53	1189045750.0	-1195.24
0227.28	3981.81954	1254.32	1197845747.0	-1195.03
0227.50	3949.99955	1254.10	1206645748.0	-1194.81
0227.78	4136.36505	1253.82	1215445745.0	-1194.53
0228.06	3781.81560	1253.54	1224245751.0	-1194.25
0228.31	3531.81818	1253.29	1233045751.0	-1194.00
0228.51	3881.82171	1253.09	1241845743.0	-1193.80
0228.69	3799.99698	1252.91	1250645750.0	-1193.63
0228.88	3709.09091	1252.72	1259445750.0	-1193.44
0229.09	3836.36189	1252.51	1268245754.0	-1193.22
0229.31	3745.45795	1252.29	1277045746.0	-1193.00
0229.54	3854.54633	1252.06	1285845744.0	-1192.77
0229.78	3868.17918	1251.82	1294645750.0	-1192.53
0230.03	3786.36407	1251.57	1303445749.0	-1192.28
0230.24	3809.09134	1251.36	1312245748.0	-1192.07
0230.44	3672.72894	1251.16	1321045744.0	-1191.87
0230.64	3986.36047	1250.96	1329845751.0	-1191.67
0230.85	3877.27361	1250.75	1338645749.0	-1191.46
0231.06	3977.27363	1250.54	1347445747.0	-1191.25
0231.27	3981.81954	1250.33	1356245744.0	-1191.04
0231.51	3663.63387	1250.09	1365045750.0	-1190.80
0231.78	3722.72939	1249.82	1373845745.0	-1190.53
0232.03	3740.90824	1249.57	1382645747.0	-1190.28
0232.26	3868.18226	1249.34	1391445746.0	-1190.05
0232.45	3722.72600	1249.15	1400245749.0	-1189.86
0232.65	3836.36451	1248.95	1409045747.0	-1189.66
0232.85	3868.18094	1248.75	1417845749.0	-1189.46
0233.07	3863.63592	1248.53	1426645750.0	-1189.25
0233.28	3890.90953	1248.32	1435445749.0	-1189.03
0233.50	3745.45540	1248.10	1444245747.0	-1188.81
0233.72	3750.00085	1247.88	1453045745.0	-1188.59
0233.94	3818.18138	1247.66	1461845746.0	-1188.37
0234.16	3713.63636	1247.44	1470645746.0	-1188.15
0234.36	3849.99913	1247.24	1479445748.0	-1187.95
0234.59	3727.27442	1247.01	1488245744.0	-1187.73
0234.80	4013.63545	1246.80	1497045746.0	-1187.51
0235.02	3822.72684	1246.58	1505845747.0	-1187.29
0235.23	3718.18351	1246.37	1514645743.0	-1187.08
0235.48	4009.09000	1246.12	1523445745.0	-1186.84
0235.76	3772.72513	1245.84	1532245750.0	-1186.55
0236.03	3800.00086	1245.57	1541045748.0	-1186.28
0236.25	3627.27355	1245.35	1549845746.0	-1186.06
0236.43	3859.09222	1245.17	1558645743.0	-1185.88
0236.62	3845.45105	1244.98	1567445751.0	-1185.70
0236.81	3736.36576	1244.79	1576245746.0	-1185.50
0237.03	3786.36321	1244.57	1585045747.0	-1185.28
0237.25	3677.27189	1244.35	1593845749.0	-1185.06
0237.48	3663.63636	1244.12	1602645749.0	-1184.83
0237.72	3859.09179	1243.88	1611445747.0	-1184.59
0237.95	3740.90697	1243.65	1620245752.0	-1184.37
0238.16	3631.82313	1243.44	1629045740.0	-1184.15
0238.36	4131.81349	1243.24	1637845750.0	-1183.95
0238.56	3995.45500	1243.04	1646645749.0	-1183.75
0238.78	3640.91033	1242.82	1655445746.0	-1183.53
0239.00	3536.36123	1242.60	1664245752.0	-1183.31
0239.22	3895.45676	1242.38	1673045747.0	-1183.09
0239.45	3759.08963	1242.15	1681845750.0	-1182.86
0239.70	4054.54684	1241.90	1690645747.0	-1182.61
0239.94	3681.81818	1241.66	1699445747.0	-1182.37
0240.16	3804.54675	1241.44	1708245744.0	-1182.15
0240.35	3813.63463	1241.25	1717045748.0	-1181.96
0240.55	3918.18226	1241.05	1725845747.0	-1181.76
0240.75	3909.09135	1240.85	1734645746.0	-1181.56
0240.97	3709.09302	1240.63	1743445741.0	-1181.34
0241.19	3722.72177	1240.41	1752245754.0	-1181.12
0241.39	3777.27616	1240.21	1761045746.0	-1180.92
0241.61	3809.09048	1239.99	1769845747.0	-1180.70
0241.81	3818.17965	1239.79	1778645752.0	-1180.50
0242.04	3945.45634	1239.56	1787445748.0	-1180.27
0242.25	3845.45586	1239.35	1796245745.0	-1180.06
0242.47	3781.81775	1239.13	1805045746.0	-1179.84
0242.68	3668.17973	1238.92	1813845751.0	-1179.63
0242.90	3904.54900	1238.70	1822645743.0	-1179.41
0243.12	4140.90627	1238.48	1831445749.0	-1179.20
0243.37	3831.81688	1238.23	1840245752.0	-1178.95
0243.65	3572.73052	1237.95	1849045744.0	-1178.66
0243.90	3804.54329	1237.70	1857845749.0	-1178.41
0244.11	3577.27395	1237.49	1866645746.0	-1178.20
0244.30	3709.08964	1237.30	1875445749.0	-1178.01
0244.49	3918.18093	1237.11	1884245751.0	-1177.83
0244.69	3840.90865	1236.91	1893045752.0	-1177.62
0244.91	3777.27444	1236.69	1901845748.0	-1177.40
0245.13	3940.91312	1236.47	1910645739.0	-1177.18
0245.37	3681.81442	1236.23	1919445748.0	-1176.94
0245.61	3622.72810	1235.99	1928245746.0	-1176.71
0245.84	3700.00084	1235.76	1937045744.0	-1176.48
0246.04	3904.54545	1235.56	1945845744.0	-1176.27
0246.24	3859.08959	1235.36	1954645747.0	-1176.07
0246.44	3740.90952	1235.16	1963445746.0	-1175.87
0246.67	3699.99958	1234.93	1972245747.0	-1175.65
0246.88	3781.81775	1234.72	1981045748.0	-1175.43
0247.10	3931.81997	1234.50	1989845744.0	-1175.21
0247.35	3890.90732	1234.25	1998645748.0	-1174.96
0247.61	4109.09278	1233.99	2007445744.0	-1174.70
0247.84	3586.36201	1233.76	2016245748.0	-1174.47
0248.05	3668.18349	1233.55	2025045744.0	-1174.26
0248.24	3836.36233	1233.36	2033845747.0	-1174.07
0248.44	3777.27187	1233.16	2042645749.0	-1173.87
0248.66	3786.36493	1232.94	2051445746.0	-1173.65
0248.88	4054.54592	1232.72	2060245745.0	-1173.43
0249.09	3722.72600	1232.51	2069045748.0	-1173.22
0249.30	3740.90824	1232.30	2077845750.0	-1173.01
0249.51	3722.72854	1232.09	2086645747.0	-1172.80
0249.73	3636.36405	1231.87	2095445746.0	-1172.58
0249.95	3795.45239	1231.65	2104245751.0	-1172.36
0250.16	3668.18432	1231.44	2113045745.0	-1172.15
0250.38	3545.45253	1231.22	2121845750.0	-1171.93
0250.59	3995.45772	1231.01	2130645743.0	-1171.72
0250.81	3968.17821	1230.79	2139445751.0	-1171.50
0251.02	3945.45679	1230.58	2148245746.0	-1171.29
0251.30	3949.99955	1230.30	2157045747.0	-1171.01
0251.57	3959.09226	1230.03	2165845744.0	-1170.74
0251.80	3836.36146	1229.80	2174645749.0	-1170.51
0252.01	3977.27318	1229.59	2183445748.0	-1170.30
0252.19	3972.73043	1229.41	2192245741.0	-1170.12
0252.39	3749.99702	1229.21	2201045748.0	-1169.92
0252.60	3900.00133	1229.00	2209845745.0	-1169.71
0252.83	3904.54235	1228.77	2218645752.0	-1169.48
0253.04	3850.00175	1228.56	2227445748.0	-1169.27
0253.27	3804.54718	1228.33	2236245744.0	-1169.04
0253.49	3827.26925	1228.11	2245045752.0	-1168.82
0253.71	3827.27577	1227.89	2253845745.0	-1168.60
0253.93	3699.99832	1227.67	2262645749.0	-1168.38
0254.13	3877.27405	1227.47	2271445746.0	-1168.18
0254.34	3749.99872	1227.26	2280245749.0	-1167.97
0254.56	3586.36527	1227.04	2289045745.0	-1167.76
0254.78	3881.81774	1226.82	2297845746.0	-1167.53
0254.99	3568.18263	1226.61	2306645744.0	-1167.32
0255.23	3713.63552	1226.37	2315445746.0	-1167.08
0255.48	4022.72590	1226.12	2324245749.0	-1166.83
0255.71	3822.72988	1225.89	2333045743.0	-1166.60
0255.93	3418.18026	1225.67	2341845747.0	-1166.38
0256.12	3763.63380	1225.48	2350645753.0	-1166.19
0256.32	3986.36681	1225.28	2359445746.0	-1165.99
0256.53	3963.63726	1225.07	2368245744.0	-1165.78
0256.76	3704.54461	1224.84	2377045746.0	-1165.55
0256.96	3795.45368	1224.64	2385845748.0	-1165.35
0257.16	3868.18226	1224.44	2394645747.0	-1165.15
0257.37	3781.81775	1224.23	2403445748.0	-1164.94
0257.58	3681.81818	1224.02	2412245748.0	-1164.73
0257.81	3722.72896	1223.79	2421045744.0	-1164.50
0258.02	3781.81775	1223.58	2429845745.0	-1164.29
0258.24	3804.54416	1223.36	2438645748.0	-1164.07
0258.46	3700.00000	1223.14	2447445748.0	-1163.85
0258.67	4068.18459	1222.93	2456245742.0	-1163.64
0258.89	3759.09005	1222.71	2465045744.0	-1163.42
0259.18	3745.45625	1222.42	2473845740.0	-1163.13
0259.46	3827.27012	1222.14	2482645746.0	-1162.86
0259.69	4609.09196	1221.91	2491445744.0	-1162.63
0259.88	4359.08893	1221.72	2500245748.0	-1162.43
0260.05	4650.00053	1221.55	2509045747.0	-1162.26
0260.25	4672.72621	1221.35	2517845749.0	-1162.06
0260.47	4850.00110	1221.13	2526645747.0	-1161.84
0260.69	5554.54482	1220.91	2535445748.0	-1161.62
0260.93	5627.27145	1220.67	2544245750.0	-1161.38
0261.16	5977.27476	1220.44	2553045747.0	-1161.15
0261.40	6986.36284	1220.20	2561845748.0	-1160.91
0261.62	7154.54952	1219.98	2570645743.0	-1160.69
0261.82	6709.08710	1219.78	2579445748.0	-1160.49
0262.03	6045.45455	1219.57	2588245748.0	-1160.28
0262.23	6686.36440	1219.37	2597045747.0	-1160.08
0262.45	6590.91134	1219.15	2605845744.0	-1159.86
0262.67	6695.45302	1218.93	2614645746.0	-1159.64
0262.89	6095.45316	1218.71	2623445748.0	-1159.42
0263.15	5900.00067	1218.45	2632245747.0	-1159.16
0263.41	5581.81882	1218.19	2641045746.0	-1158.90
0263.64	5345.45455	1217.96	2649845746.0	-1158.67
0263.83	4995.45455	1217.77	2658645746.0	-1158.48
0264.02	4668.18500	1217.58	2667445740.0	-1158.29
0264.22	4459.08534	1217.38	2676245751.0	-1158.09
0264.44	4445.45859	1217.16	2685045743.0	-1157.87
0264.66	4449.99595	1216.94	2693845751.0	-1157.65
0264.88	4354.54842	1216.72	2702645745.0	-1157.44
0265.09	4131.81490	1216.51	2711445752.0	-1157.22
0265.31	4027.27502	1216.29	2720245747.0	-1157.00
0265.53	4372.72777	1216.07	2729045746.0	-1156.78
0265.74	4059.09137	1215.86	2737845745.0	-1156.57
0265.95	3986.36409	1215.65	2746645744.0	-1156.36
0266.17	4213.63684	1215.43	2755445743.0	-1156.14
0266.38	3981.81773	1215.22	2764245744.0	-1155.93
0266.60	3977.26911	1215.00	2773045752.0	-1155.71
0266.84	4190.91195	1214.76	2781845746.0	-1155.47
0267.13	3945.45365	1214.47	2790645748.0	-1155.18
0267.39	3963.63771	1214.21	2799445745.0	-1154.93
0267.61	4036.36410	1213.99	2808245744.0	-1154.70
0267.80	3881.81818	1213.80	2817045744.0	-1154.51
0267.98	3877.27008	1213.62	2825845750.0	-1154.33
0268.18	4136.36223	1213.42	2834645753.0	-1154.13
0268.40	3868.18358	1213.20	2843445749.0	-1153.91
0268.62	3968.18182	1212.98	2852245749.0	-1153.69
0268.84	3895.45455	1212.76	2861045749.0	-1153.47
0269.07	3868.18402	1212.53	2869845744.0	-1153.24
0269.31	3840.90691	1212.29	2878645749.0	-1153.00
0269.52	3759.08963	1212.08	2887445752.0	-1152.79
0269.71	3895.45543	1211.89	2896245750.0	-1152.60
0269.92	3977.27589	1211.68	2905045743.0	-1152.39
0270.14	3990.90592	1211.46	2913845750.0	-1152.17
0270.36	3772.73027	1211.24	2922645743.0	-1151.95
0270.57	3668.18057	1211.03	2931445746.0	-1151.74
0270.80	3799.99741	1210.80	2940245752.0	-1151.51
0271.05	4018.18501	1210.55	2949045745.0	-1151.26
0271.30	3654.54587	1210.30	2957845744.0	-1151.01
0271.51	4009.09000	1210.09	2966645746.0	-1150.80
0271.71	3772.72599	1209.89	2975445749.0	-1150.60
0271.91	4036.36226	1209.69	2984245752.0	-1150.40
0272.11	3963.63817	1209.49	2993045748.0	-1150.20
0272.34	3727.27273	1209.26	3001845748.0	-1149.97
0272.56	4013.63636	1209.04	3010645748.0	-1149.75
0272.75	3713.63679	1208.85	3019445747.0	-1149.56
0272.96	3840.90822	1208.64	3028245749.0	-1149.35
0273.17	3836.36712	1208.43	3037045741.0	-1149.14
0273.40	3854.54283	1208.20	3045845747.0	-1148.91
0273.61	4059.09045	1207.99	3054645748.0	-1148.70
0273.83	3754.54631	1207.77	3063445746.0	-1148.48
0274.05	3827.27447	1207.55	3072245742.0	-1148.26
0274.25	3827.26838	1207.35	3081045752.0	-1148.06
0274.46	3918.18538	1207.14	3089845744.0	-1147.85
0274.72	3627.27149	1206.88	3098645747.0	-1147.59
0275.00	3763.63423	1206.60	3107445752.0	-1147.31
0275.26	3931.82086	1206.34	3116245746.0	-1147.06
0275.48	3872.72639	1206.12	3125045748.0	-1146.83
0275.66	3809.09221	1205.94	3133845745.0	-1146.65
0275.84	3831.81644	1205.76	3142645749.0	-1146.48
0276.05	3954.54545	1205.55	3151445749.0	-1146.27
0276.27	3690.90867	1205.33	3160245750.0	-1146.04
0276.49	3868.18270	1205.11	3169045748.0	-1145.82
0276.73	3722.72685	1204.87	3177845749.0	-1145.58
0276.97	4054.54592	1204.63	3186645748.0	-1145.34
0277.19	3977.27228	1204.41	3195445749.0	-1145.12
0277.40	4000.00182	1204.20	3204245745.0	-1144.91
0277.60	3790.90866	1204.00	3213045746.0	-1144.71
0277.81	3999.99727	1203.79	3221845752.0	-1144.50
0278.03	4063.64144	1203.57	3230645741.0	-1144.28
0278.24	3854.54370	1203.36	3239445745.0	-1144.07
0278.46	3963.63411	1203.14	3248245750.0	-1143.85
0278.71	4259.09285	1202.89	3257045746.0	-1143.60
0278.96	3909.09002	1202.64	3265845748.0	-1143.35
0279.20	4081.81725	1202.40	3274645750.0	-1143.11
0279.41	4313.64029	1202.19	3283445742.0	-1142.90
0279.59	4295.45308	1202.01	3292245745.0	-1142.72
0279.79	3954.54366	1201.81	3301045749.0	-1142.52
0280.00	4090.91095	1201.60	3309845745.0	-1142.31
0280.22	3954.54366	1201.38	3318645749.0	-1142.09
0280.43	3936.36364	1201.17	3327445749.0	-1141.88
0280.64	4063.63821	1200.96	3336245745.0	-1141.67
0280.85	4050.00000	1200.75	3345045745.0	-1141.46
0281.08	4131.81771	1200.52	3353845746.0	-1141.23
0281.30	3931.81908	1200.30	3362645744.0	-1141.02
0281.51	3963.63276	1200.09	3371445752.0	-1140.80
0281.73	3990.91136	1199.87	3380245747.0	-1140.58
0281.93	4095.45548	1199.67	3389045745.0	-1140.38
0282.15	3822.72554	1199.45	3397845749.0	-1140.16
0282.37	4163.63400	1199.23	3406645754.0	-1139.94
0282.64	4031.82276	1198.96	3415445744.0	-1139.67
0282.91	3986.36228	1198.69	3424245747.0	-1139.40
0283.15	3754.54631	1198.45	3433045745.0	-1139.17
0283.35	3859.08828	1198.25	3441845751.0	-1138.96
0283.53	4218.18421	1198.07	3450645746.0	-1138.78
0283.72	3890.90865	1197.88	3459445747.0	-1138.59
0283.93	3927.27094	1197.67	3468245751.0	-1138.38
0284.16	4145.45784	1197.44	3477045744.0	-1138.15
0284.38	3722.72600	1197.22	3485845747.0	-1137.93
0284.60	4054.54361	1197.00	3494645751.0	-1137.71
0284.83	3945.45455	1196.77	3503445751.0	-1137.48
0285.04	4072.72912	1196.56	3512245747.0	-1137.27
0285.26	3968.18137	1196.34	3521045748.0	-1137.05
0285.47	4109.08951	1196.13	3529845751.0	-1136.84
0285.68	3972.73043	1195.92	3538645744.0	-1136.63
0285.89	3963.63501	1195.71	3547445747.0	-1136.42
0286.11	4081.81911	1195.49	3556245745.0	-1136.20
0286.32	4036.36272	1195.28	3565045747.0	-1135.99
0286.56	4090.90956	1195.04	3573845746.0	-1135.75
0286.81	3740.90739	1194.79	3582645750.0	-1135.50
0287.04	4163.64204	1194.56	3591445738.0	-1135.27
0287.25	3999.99636	1194.35	3600245746.0	-1135.06
0287.45	3918.18226	1194.15	3609045745.0	-1134.86
0287.65	3963.63636	1193.95	3617845745.0	-1134.66
0287.86	3968.17911	1193.74	3626645751.0	-1134.45
0288.08	3954.54725	1193.52	3635445747.0	-1134.23
0288.28	3863.63636	1193.32	3644245747.0	-1134.03
0288.48	3886.36540	1193.12	3653045743.0	-1133.83
0288.69	4186.36173	1192.91	3661845747.0	-1133.62
0288.90	4113.63356	1192.70	3670645753.0	-1133.41
0289.12	3900.00266	1192.48	3679445747.0	-1133.19
0289.34	3886.36364	1192.26	3688245747.0	-1132.97
0289.57	3768.18011	1192.03	3697045751.0	-1132.74
0289.77	3799.99957	1191.83	3705845752.0	-1132.54
0289.99	3981.81999	1191.61	3714645748.0	-1132.32
0290.23	4027.27410	1191.37	3723445745.0	-1132.09
0290.52	4022.72453	1191.08	3732245751.0	-1131.79
0290.81	3636.36529	1190.79	3741045747.0	-1131.50
0291.05	3772.72556	1190.55	3749845751.0	-1131.26
0291.23	3950.00000	1190.37	3758645751.0	-1131.08
0291.40	3800.00173	1190.20	3767445747.0	-1130.91
0291.60	4059.09275	1190.00	3776245743.0	-1130.72
0291.82	3786.35847	1189.78	3785045755.0	-1130.49
0292.04	3831.82210	1189.56	3793845746.0	-1130.27
0292.27	3886.36408	1189.33	3802645745.0	-1130.04
0292.52	3804.54589	1189.08	3811445744.0	-1129.79
0292.74	3890.90644	1188.86	3820245750.0	-1129.57
0292.97	3968.18227	1188.63	3829045749.0	-1129.35
0293.17	4086.36317	1188.43	3837845750.0	-1129.14
0293.38	3900.00222	1188.22	3846645745.0	-1128.93
0293.59	3986.36318	1188.01	3855445746.0	-1128.72
0293.80	3913.63636	1187.80	3864245746.0	-1128.51
0294.01	4163.63636	1187.59	3873045746.0	-1128.30
0294.24	4068.18089	1187.36	3881845748.0	-1128.07
0294.52	4009.09000	1187.08	3890645750.0	-1127.79
0294.78	4086.36596	1186.82	3899445745.0	-1127.53
0294.99	4068.18136	1186.61	3908245746.0	-1127.32
0295.19	3922.72816	1186.41	3917045744.0	-1127.12
0295.39	4118.18041	1186.21	3925845747.0	-1126.92
0295.59	4127.27320	1186.01	3934645746.0	-1126.72
0295.80	4213.63636	1185.80	3943445746.0	-1126.51
0296.02	3904.54545	1185.58	3952245746.0	-1126.30
0296.23	3881.81862	1185.37	3961045745.0	-1126.08
0296.46	3845.45236	1185.14	3969845750.0	-1125.86
0296.68	3990.94537	1184.92	3978645670.0	-1125.63
0296.90	4099.96459	1184.70	3987445746.0	-1125.41
0297.10	4227.26985	1184.50	3996245752.0	-1125.21
0297.26	4004.54682	1184.34	4005045749.0	-1125.05
0297.46	4150.00047	1184.14	4013845748.0	-1124.85
0297.69	3890.90953	1183.91	4022645747.0	-1124.62
0297.89	3859.09047	1183.71	4031445748.0	-1124.42
0298.15	4122.72587	1183.45	4040245751.0	-1124.16
0298.43	3918.18493	1183.17	4049045744.0	-1123.88
0298.69	3877.27141	1182.91	4057845747.0	-1123.62
0298.91	4031.81910	1182.69	4066645745.0	-1123.40
0299.09	4086.36224	1182.51	4075445748.0	-1123.22
0299.28	3968.18137	1182.32	4084245749.0	-1123.03
0299.48	4104.54779	1182.12	4093045744.0	-1122.83
0299.70	3995.45318	1181.90	4101845747.0	-1122.61
0299.93	3959.09046	1181.67	4110645748.0	-1122.38
0300.16	4009.09091	1181.44	4119445748.0	-1122.15
0300.39	4190.91004	1181.21	4128245746.0	-1121.92
0300.62	4386.36463	1180.98	4137045744.0	-1121.69
0300.83	3990.90592	1180.77	4145845751.0	-1121.48
0301.03	4086.36596	1180.57	4154645746.0	-1121.28
0301.24	4131.81959	1180.36	4163445743.0	-1121.07
0301.45	4136.36129	1180.15	4172245748.0	-1120.86
0301.67	4250.00000	1179.93	4181045748.0	-1120.65
0301.89	4213.63780	1179.71	4189845745.0	-1120.42
0302.13	4263.63539	1179.47	4198645747.0	-1120.18
0302.38	4354.54496	1179.22	4207445748.0	-1119.93
0302.62	4254.54690	1178.98	4216245745.0	-1119.69
0302.84	4218.18038	1178.76	4225045748.0	-1119.47
0303.03	4286.36412	1178.57	4233845747.0	-1119.28
0303.22	4586.36259	1178.38	4242645749.0	-1119.09
0303.43	4227.27225	1178.17	4251445750.0	-1118.88
0303.66	4263.67222	1177.94	4260245676.0	-1118.66
0303.87	4281.78364	1177.73	4269045747.0	-1118.44
0304.07	4254.54545	1177.53	4277845747.0	-1118.24
0304.28	4372.72777	1177.32	4286645746.0	-1118.03
0304.49	-8.73508	1177.11	478448.0	-1117.82
0304.71	4259.08752	1176.89	9278455.0	-1117.60
0304.93	4131.82241	1176.67	18078446.0	-1117.38
0305.14	4327.26879	1176.46	26878454.0	-1117.17
0305.36	4290.91202	1176.24	35678448.0	-1116.95
0305.57	4059.08953	1176.03	44478451.0	-1116.74
0305.78	4013.63682	1175.82	53278450.0	-1116.53
0306.04	4259.08946	1175.56	62078453.0	-1116.27
0306.33	4422.72928	1175.27	70878449.0	-1115.98
0306.58	4140.90721	1175.02	79678453.0	-1115.73
0306.79	4504.54699	1174.81	88478450.0	-1115.52
0306.97	4381.81818	1174.63	97278450.0	-1115.34
0307.16	4354.54545	1174.44	106078450.0	-1115.15
0307.36	4445.45303	1174.24	114878453.0	-1114.95
0307.59	4586.36676	1174.01	123678447.0	-1114.72
0307.81	4409.08991	1173.79	132478449.0	-1114.50
0308.05	4640.90909	1173.55	141278449.0	-1114.26
0308.29	4609.09353	1173.31	150078444.0	-1114.02
0308.52	4540.90599	1173.08	158878450.0	-1113.79
0308.73	4659.08985	1172.87	167678452.0	-1113.58
0308.92	4972.72840	1172.68	176478450.0	-1113.39
0309.13	4890.91076	1172.47	185278447.0	-1113.18
0309.34	5022.72670	1172.26	194078448.0	-1112.97
0309.56	5049.99943	1172.04	202878449.0	-1112.75
0309.77	5263.63218	1171.83	211678456.0	-1112.54
0310.03	5559.09470	1171.57	220478450.0	-1112.28
0310.28	5800.00000	1171.32	229278450.0	-1112.03
0310.52	5654.54417	1171.08	238078452.0	-1111.79
0310.74	6100.00139	1170.86	246878450.0	-1111.58
0310.91	5890.90775	1170.69	255678452.0	-1111.40
0311.12	6336.36580	1170.48	264478449.0	-1111.19
0311.32	6331.81818	1170.28	273278449.0	-1110.99
0311.56	6613.63486	1170.04	282078451.0	-1110.75
0311.78	7154.54464	1169.82	290878452.0	-1110.54
0312.00	7413.63889	1169.60	299678449.0	-1110.31
0312.20	6977.26876	1169.40	308478454.0	-1110.11
0312.42	7177.27762	1169.18	317278448.0	-1109.89
0312.63	7613.63550	1168.97	326078449.0	-1109.68
0312.85	7295.45372	1168.75	334878450.0	-1109.46
0313.06	7363.63636	1168.54	343678450.0	-1109.25
0313.28	7454.54461	1168.32	352478451.0	-1109.03
0313.50	7181.81818	1168.10	361278451.0	-1108.81
0313.72	7218.18264	1167.88	370078450.0	-1108.59
0313.99	7204.54136	1167.61	378878455.0	-1108.32
0314.26	6736.36517	1167.34	387678453.0	-1108.05
0314.50	6286.36435	1167.10	396478452.0	-1107.81
0314.71	6004.54818	1166.89	405278448.0	-1107.60
0314.89	5981.81478	1166.71	414078453.0	-1107.42
0315.09	6327.27776	1166.51	422878446.0	-1107.22
0315.30	6077.27204	1166.30	431678447.0	-1107.01
0315.52	5909.08487	1166.08	440478456.0	-1106.79
0315.75	5590.91354	1165.85	449278449.0	-1106.56
0315.97	5790.90580	1165.63	458078454.0	-1106.34
0316.20	5518.18245	1165.40	466878453.0	-1106.12
0316.41	5768.18313	1165.19	475678451.0	-1105.91
0316.62	5577.27463	1164.98	484478448.0	-1105.69
0316.82	5231.81699	1164.78	493278450.0	-1105.49
0317.04	5218.18123	1164.56	502078451.0	-1105.27
0317.25	5281.81818	1164.35	510878451.0	-1105.06
0317.46	5113.63520	1164.14	519678453.0	-1104.85
0317.68	5290.90909	1163.92	528478453.0	-1104.63
0317.91	5172.72786	1163.69	537278452.0	-1104.40
0318.16	5040.90909	1163.44	546078452.0	-1104.15
0318.39	5200.00236	1163.21	554878448.0	-1103.92
0318.60	4936.36195	1163.00	563678451.0	-1103.71
0318.79	4831.81983	1162.81	572478448.0	-1103.52
0319.00	4777.26893	1162.60	581278455.0	-1103.31
0319.22	5036.36707	1162.38	590078449.0	-1103.09
0319.43	5145.45513	1162.17	598878448.0	-1102.88
0319.64	4945.45567	1161.96	607678446.0	-1102.67
0319.84	4781.81492	1161.76	616478452.0	-1102.47
0320.05	4959.09260	1161.55	625278449.0	-1102.26
0320.26	5354.54302	1161.34	634078453.0	-1102.05
0320.48	5027.27330	1161.12	642878452.0	-1101.83
0320.70	4850.00000	1160.90	651678452.0	-1101.61
0320.92	5209.08736	1160.68	660478458.0	-1101.39
0321.13	4968.18746	1160.47	669278448.0	-1101.18
0321.34	5249.99761	1160.26	678078452.0	-1100.97
0321.58	4904.54657	1160.02	686878450.0	-1100.73
0321.87	5036.36421	1159.73	695678449.0	-1100.44
0322.13	5081.81356	1159.47	704478457.0	-1100.18
0322.37	4781.82253	1159.23	713278449.0	-1099.94
0322.55	5027.27216	1159.05	722078450.0	-1099.76
0322.74	4836.36089	1158.86	730878455.0	-1099.57
0322.93	4877.27328	1158.67	739678454.0	-1099.38
0323.16	4940.91246	1158.44	748478448.0	-1099.16
0323.37	5209.09032	1158.23	757278449.0	-1098.94
0323.61	4922.72671	1157.99	766078450.0	-1098.70
0323.85	4895.45121	1157.75	774878456.0	-1098.46
0324.08	5131.81760	1157.52	783678457.0	-1098.23
0324.30	4895.45399	1157.30	792478458.0	-1098.01
0324.50	4731.82410	1157.10	801278447.0	-1097.81
0324.71	5209.08617	1156.89	810078455.0	-1097.60
0324.92	5118.18356	1156.68	818878452.0	-1097.40
0325.14	5109.09381	1156.46	827678447.0	-1097.17
0325.35	4840.90524	1156.25	836478454.0	-1096.96
0325.59	5490.90847	1156.01	845278455.0	-1096.72
0325.85	5159.09384	1155.75	854078450.0	-1096.46
0326.10	5404.54484	1155.50	862878451.0	-1096.21
0326.32	5436.36117	1155.28	871678455.0	-1095.99
0326.52	5550.00126	1155.08	880478453.0	-1095.79
0326.71	5195.45514	1154.89	889278452.0	-1095.60
0326.91	5209.09209	1154.69	898078450.0	-1095.40
0327.13	5068.18355	1154.47	906878447.0	-1095.18
0327.35	5813.63372	1154.25	915678451.0	-1094.96
0327.56	5445.45516	1154.04	924478450.0	-1094.76
0327.78	5777.27207	1153.82	933278451.0	-1094.53
0327.99	5650.00064	1153.61	942078450.0	-1094.32
0328.22	5781.81490	1153.38	950878455.0	-1094.09
0328.42	5790.91238	1153.18	959678450.0	-1093.89
0328.64	6113.63636	1152.96	968478450.0	-1093.67
0328.85	6013.63773	1152.75	977278448.0	-1093.46
0329.07	6086.36225	1152.53	986078450.0	-1093.24
0329.28	6522.73024	1152.32	994878446.0	-1093.03
0329.53	6318.17607	1152.07	1003678454.0	-1092.78
0329.82	6404.54909	1151.78	1012478449.0	-1092.50
0330.08	6663.63106	1151.52	1021278456.0	-1092.23
0330.29	6513.63784	1151.31	1030078454.0	-1092.02
0330.48	6627.27800	1151.12	1038878447.0	-1091.83
0330.67	7095.45051	1150.93	1047678452.0	-1091.64
0330.87	6613.63636	1150.73	1056478452.0	-1091.44
0331.08	6750.00384	1150.52	1065278447.0	-1091.23
0331.30	6527.27050	1150.30	1074078450.0	-1091.01
0331.53	6809.08859	1150.07	1082878453.0	-1090.78
0331.76	6645.45379	1149.84	1091678454.0	-1090.55
0331.98	6422.72946	1149.62	1100478451.0	-1090.33
0332.19	6486.36216	1149.41	1109278453.0	-1090.12
0332.39	6536.36364	1149.21	1118078453.0	-1089.92
0332.60	6481.81965	1149.00	1126878451.0	-1089.71
0332.82	6350.00072	1148.78	1135678450.0	-1089.49
0333.03	6340.91197	1148.57	1144478446.0	-1089.28
0333.25	5890.90507	1148.35	1153278452.0	-1089.06
0333.48	6095.45177	1148.12	1162078456.0	-1088.83
0333.74	6186.36082	1147.86	1170878460.0	-1088.57
0333.98	5913.64241	1147.62	1179678451.0	-1088.33
0334.19	5813.63636	1147.41	1188478451.0	-1088.12
0334.39	5586.36300	1147.21	1197278452.0	-1087.93
0334.59	5581.81691	1147.01	1206078454.0	-1087.72
0334.80	5763.63767	1146.80	1214878452.0	-1087.51
0335.02	5654.54674	1146.58	1223678450.0	-1087.29
0335.24	5509.09154	1146.36	1232478449.0	-1087.08
0335.44	5627.27017	1146.16	1241278453.0	-1086.87
0335.65	5490.90971	1145.95	1250078452.0	-1086.66
0335.86	5604.54737	1145.74	1258878449.0	-1086.45
0336.08	5704.54481	1145.52	1267678450.0	-1086.23
0336.29	5477.27335	1145.31	1276478449.0	-1086.02
0336.50	5404.54484	1145.10	1285278450.0	-1085.81
0336.72	5186.36069	1144.88	1294078455.0	-1085.59
0336.94	5386.36547	1144.66	1302878452.0	-1085.37
0337.17	5400.00000	1144.43	1311678452.0	-1085.15
0337.43	5331.81939	1144.17	1320478450.0	-1084.88
0337.69	5572.72727	1143.91	1329278450.0	-1084.62
0337.95	5595.45264	1143.65	1338078453.0	-1084.36
0338.16	5204.55019	1143.44	1346878445.0	-1084.15
0338.34	5449.99381	1143.26	1355678455.0	-1083.97
0338.53	5272.72967	1143.07	1364478451.0	-1083.78
0338.74	5368.18243	1142.86	1373278450.0	-1083.57
0338.96	5400.00184	1142.64	1382078447.0	-1083.35
0339.17	5222.72490	1142.43	1390878451.0	-1083.14
0339.41	5481.81694	1142.19	1399678453.0	-1082.90
0339.65	5227.27154	1141.95	1408478455.0	-1082.66
0339.88	5227.27273	1141.72	1417278455.0	-1082.43
0340.10	5390.91277	1141.50	1426078449.0	-1082.22
0340.29	5368.17816	1141.31	1434878455.0	-1082.02
0340.50	5327.27454	1141.10	1443678452.0	-1081.81
0340.70	5263.63636	1140.90	1452478452.0	-1081.61
0340.92	5154.54780	1140.68	1461278448.0	-1081.39
0341.14	5395.45271	1140.46	1470078451.0	-1081.17
0341.40	5331.81879	1140.20	1478878450.0	-1080.91
0341.65	5009.09091	1139.95	1487678450.0	-1080.66
0341.89	5150.00000	1139.71	1496478450.0	-1080.42
0342.09	4981.82045	1139.51	1505278446.0	-1080.22
0342.27	5177.27037	1139.33	1514078450.0	-1080.04
0342.48	5245.45335	1139.12	1522878452.0	-1079.83
0342.70	5199.99645	1138.90	1531678458.0	-1079.61
0342.92	5245.45872	1138.68	1540478451.0	-1079.39
0343.13	5404.54607	1138.47	1549278450.0	-1079.18
0343.34	4895.45733	1138.26	1558078445.0	-1078.97
0343.54	5386.35813	1138.06	1566878454.0	-1078.77
0343.76	5331.81818	1137.84	1575678454.0	-1078.55
0343.98	5127.29836	1137.62	1584478410.0	-1078.33
0344.20	5236.33924	1137.40	1593278451.0	-1078.11
0344.42	5231.81878	1137.18	1602078450.0	-1077.90
0344.63	5418.17997	1136.97	1610878453.0	-1077.68
0344.85	5368.17877	1136.75	1619678458.0	-1077.46
0345.06	5245.45931	1136.54	1628478450.0	-1077.25
0345.33	5377.27273	1136.27	1637278450.0	-1076.98
0345.61	5500.00063	1135.99	1646078449.0	-1076.70
0345.84	5059.09033	1135.76	1654878450.0	-1076.47
0346.04	5340.90848	1135.56	1663678451.0	-1076.27
0346.22	5181.81759	1135.38	1672478452.0	-1076.09
0346.42	5331.81879	1135.18	1681278451.0	-1075.89
0346.64	5204.56852	1134.96	1690078412.0	-1075.67
0346.86	5231.79559	1134.74	1698878450.0	-1075.45
0347.07	5349.99635	1134.53	1707678456.0	-1075.24
0347.30	5295.45575	1134.30	1716478454.0	-1075.01
0347.52	5200.00177	1134.08	1725278451.0	-1074.79
0347.74	5318.21989	1133.86	1734078388.0	-1074.58
0347.94	5313.60013	1133.66	1742878448.0	-1074.37
0348.15	5204.54072	1133.45	1751678456.0	-1074.16
0348.37	5263.63816	1133.23	1760478453.0	-1073.94
0348.58	5545.45518	1133.02	1769278452.0	-1073.73
0348.80	5231.81997	1132.80	1778078449.0	-1073.51
0349.02	5245.45276	1132.58	1786878452.0	-1073.29
0349.26	5072.72554	1132.34	1795678455.0	-1073.05
0349.50	5313.63878	1132.10	1804478451.0	-1072.81
0349.73	5168.17888	1131.87	1813278456.0	-1072.58
0349.94	5254.54844	1131.66	1822078451.0	-1072.38
0350.13	5254.54247	1131.47	1830878456.0	-1072.18
0350.34	5477.27708	1131.26	1839678449.0	-1071.97
0350.56	5195.45277	1131.04	1848478452.0	-1071.75
0350.77	5290.90729	1130.83	1857278455.0	-1071.54
0350.98	5531.81818	1130.62	1866078455.0	-1071.34
0351.17	5340.91030	1130.43	1874878453.0	-1071.14
0351.38	5581.81818	1130.22	1883678453.0	-1070.93
0351.59	5368.18426	1130.01	1892478449.0	-1070.72
0351.81	5318.18242	1129.79	1901278448.0	-1070.50
0352.02	5418.18059	1129.58	1910078450.0	-1070.29
0352.25	5513.63386	1129.35	1918878454.0	-1070.06
0352.47	5359.09030	1129.13	1927678455.0	-1069.84
0352.67	5404.54914	1128.93	1936478449.0	-1069.64
0352.91	5345.45819	1128.69	1945278443.0	-1069.40
0353.20	4936.35859	1128.40	1954078452.0	-1069.11
0353.48	5177.26920	1128.12	1962878458.0	-1068.83
0353.70	5281.81998	1127.90	1971678455.0	-1068.61
0353.89	5272.72967	1127.71	1980478451.0	-1068.42
0354.07	5254.54545	1127.53	1989278451.0	-1068.24
0354.27	5113.63578	1127.33	1998078452.0	-1068.04
0354.49	5427.27334	1127.11	2006878451.0	-1067.82
0354.71	5245.45812	1126.89	2015678445.0	-1067.60
0354.95	5295.45093	1126.65	2024478451.0	-1067.36
0355.19	5200.00177	1126.41	2033278448.0	-1067.12
0355.42	5322.72727	1126.18	2042078448.0	-1066.89
0355.64	5318.18182	1125.96	2050878448.0	-1066.67
0355.83	5263.62978	1125.77	2059678459.0	-1066.48
0356.03	5322.73514	1125.57	2068478446.0	-1066.28
0356.25	4995.45227	1125.35	2077278450.0	-1066.07
0356.46	5204.54368	1125.14	2086078453.0	-1065.85
0356.68	5177.27390	1124.92	2094878451.0	-1065.63
0356.92	5059.08976	1124.68	2103678453.0	-1065.39
0357.19	4922.72783	1124.41	2112478452.0	-1065.12
0357.44	5359.09091	1124.16	2121278452.0	-1064.87
0357.67	5190.91027	1123.93	2130078450.0	-1064.64
0357.86	4872.72395	1123.74	2138878456.0	-1064.45
0358.05	5450.00310	1123.55	2147678451.0	-1064.26
0358.25	5277.27213	1123.35	2156478452.0	-1064.06
0358.47	4995.45738	1123.13	2165278447.0	-1063.84
0358.68	4940.90797	1122.92	2174078449.0	-1063.63
0358.89	5036.36077	1122.71	2182878454.0	-1063.42
0359.12	5218.18300	1122.48	2191678452.0	-1063.19
0359.33	4990.91136	1122.27	2200478448.0	-1062.98
0359.55	4995.45114	1122.05	2209278454.0	-1062.76
0359.76	5013.63921	1121.84	2218078449.0	-1062.55
0359.98	4886.36253	1121.62	2226878451.0	-1062.33
0360.20	5127.27273	1121.40	2235678451.0	-1062.11
0360.40	5009.09034	1121.20	2244478452.0	-1061.91
0360.61	4936.36588	1120.99	2253278448.0	-1061.70
0360.87	4809.09036	1120.73	2262078449.0	-1061.44
0361.16	4913.63804	1120.44	2270878446.0	-1061.15
0361.42	5081.81587	1120.18	2279678450.0	-1060.89
0361.63	5095.45165	1119.97	2288478455.0	-1060.68
0361.81	5118.18414	1119.79	2297278451.0	-1060.50
0362.00	5350.00061	1119.60	2306078450.0	-1060.31
0362.20	4786.35983	1119.40	2314878457.0	-1060.11
0362.42	4945.45736	1119.18	2323678452.0	-1059.89
0362.64	5218.18300	1118.96	2332478450.0	-1059.67
0362.88	4913.63357	1118.72	2341278455.0	-1059.43
0363.11	4809.09310	1118.49	2350078451.0	-1059.20
0363.33	4690.90962	1118.27	2358878450.0	-1058.98
0363.54	5040.90565	1118.06	2367678456.0	-1058.77
0363.74	4954.54883	1117.86	2376478450.0	-1058.57
0363.95	4627.27325	1117.65	2385278449.0	-1058.36
0364.17	4954.54489	1117.43	2394078450.0	-1058.14
0364.39	5345.45698	1117.21	2402878446.0	-1057.93
0364.61	4931.81650	1116.99	2411678449.0	-1057.70
0364.84	4945.45117	1116.76	2420478455.0	-1057.47
0365.10	4831.81708	1116.50	2429278457.0	-1057.21
0365.34	4886.36586	1116.26	2438078453.0	-1056.97
0365.56	4618.18234	1116.04	2446878452.0	-1056.75
0365.75	4736.36417	1115.85	2455678451.0	-1056.56
0365.95	5031.81875	1115.65	2464478450.0	-1056.36
0366.16	4890.90576	1115.44	2473278456.0	-1056.15
0366.37	4754.54924	1115.23	2482078449.0	-1055.94
0366.59	4868.18126	1115.01	2490878450.0	-1055.73
0366.79	4795.45455	1114.81	2499678450.0	-1055.52
0366.99	4859.09091	1114.61	2508478450.0	-1055.32
0367.21	4740.91071	1114.39	2517278447.0	-1055.10
0367.43	4804.54327	1114.17	2526078451.0	-1054.88
0367.65	4731.81764	1113.95	2534878452.0	-1054.66
0367.86	5322.72909	1113.74	2543678449.0	-1054.45
0368.09	5036.35791	1113.51	2552478459.0	-1054.22
0368.30	4927.27217	1113.30	2561278460.0	-1054.01
0368.51	4868.18790	1113.09	2570078449.0	-1053.80
0368.78	4650.00317	1112.82	2578878443.0	-1053.53
0369.06	4731.81442	1112.54	2587678450.0	-1053.25
0369.30	5059.08861	1112.30	2596478454.0	-1053.01
0369.51	4886.36197	1112.09	2605278457.0	-1052.80
0369.68	4940.91190	1111.92	2614078452.0	-1052.63
0369.87	4609.09300	1111.73	2622878448.0	-1052.44
0370.08	4931.81538	1111.52	2631678453.0	-1052.23
0370.31	4750.00000	1111.29	2640478453.0	-1052.00
0370.52	4990.90796	1111.08	2649278455.0	-1051.79
0370.76	5009.09205	1110.84	2658078453.0	-1051.55
0370.99	5145.45279	1110.61	2666878456.0	-1051.32
0371.22	5000.00398	1110.38	2675678449.0	-1051.09
0371.43	4854.54380	1110.17	2684478452.0	-1050.88
0371.63	4899.99722	1109.97	2693278457.0	-1050.68
0371.84	4959.09147	1109.76	2702078456.0	-1050.47
0372.05	4668.18447	1109.55	2710878451.0	-1050.26
0372.28	4654.54334	1109.32	2719678455.0	-1050.04
0372.49	4854.54876	1109.11	2728478449.0	-1049.82
0372.74	4740.91017	1108.86	2737278447.0	-1049.57
0372.99	4613.63532	1108.61	2746078449.0	-1049.32
0373.23	4936.35971	1108.37	2754878456.0	-1049.08
0373.45	4690.91229	1108.15	2763678450.0	-1048.86
0373.64	4690.90909	1107.96	2772478450.0	-1048.67
0373.84	4845.45565	1107.76	2781278448.0	-1048.47
0374.05	4700.00534	1107.55	2790078438.0	-1048.26
0374.27	4672.71825	1107.33	2798878455.0	-1048.04
0374.48	4786.36472	1107.12	2807678453.0	-1047.84
0374.69	4731.82087	1106.91	2816478448.0	-1047.62
0374.90	4790.90419	1106.70	2825278457.0	-1047.41
0375.13	4990.90966	1106.47	2834078456.0	-1047.18
0375.34	4686.36523	1106.26	2842878453.0	-1046.97
0375.55	4859.08980	1106.05	2851678455.0	-1046.76
0375.77	5100.00058	1105.83	2860478454.0	-1046.54
0375.99	4636.36522	1105.61	2869278451.0	-1046.32
0376.20	4672.72727	1105.40	2878078451.0	-1046.11
0376.42	5013.63864	1105.18	2886878447.0	-1045.89
0376.70	4577.26805	1104.90	2895678456.0	-1045.62
0376.96	4945.45511	1104.64	2904478455.0	-1045.35
0377.19	4827.27602	1104.41	2913278449.0	-1045.12
0377.39	4909.09147	1104.21	2922078448.0	-1044.93
0377.57	4881.81652	1104.03	2930878451.0	-1044.74
0377.77	4681.81818	1103.83	2939678451.0	-1044.54
0377.99	4690.90643	1103.61	2948478456.0	-1044.33
0378.21	4754.54978	1103.39	2957278448.0	-1044.10
0378.43	4577.27221	1103.17	2966078449.0	-1043.88
0378.66	4899.99499	1102.94	2974878458.0	-1043.65
0378.88	4904.54880	1102.72	2983678452.0	-1043.43
0379.10	4900.00445	1102.50	2992478444.0	-1043.21
0379.30	4736.35772	1102.30	3001278455.0	-1043.01
0379.51	4509.09501	1102.09	3010078447.0	-1042.80
0379.73	4781.81818	1101.87	3018878447.0	-1042.58
0379.96	4540.90703	1101.64	3027678451.0	-1042.35
0380.17	4563.63740	1101.43	3036478449.0	-1042.14
0380.38	4513.63688	1101.22	3045278448.0	-1041.93
0380.63	4604.54441	1100.97	3054078450.0	-1041.68
0380.87	4913.63581	1100.73	3062878451.0	-1041.44
0381.09	4722.72727	1100.51	3071678451.0	-1041.22
0381.29	4513.63739	1100.31	3080478449.0	-1041.02
0381.49	4927.27217	1100.11	3089278450.0	-1040.82
0381.70	4486.36313	1099.90	3098078451.0	-1040.61
0381.92	4777.27056	1099.68	3106878455.0	-1040.39
0382.13	4690.91176	1099.47	3115678450.0	-1040.18
0382.34	4663.63689	1099.26	3124478449.0	-1039.97
0382.54	4677.27326	1099.06	3133278448.0	-1039.77
0382.75	4754.54437	1098.85	3142078450.0	-1039.56
0382.97	4418.18232	1098.63	3150878449.0	-1039.34
0383.19	4636.36258	1098.41	3159678451.0	-1039.12
0383.41	4700.00107	1098.19	3168478449.0	-1038.90
0383.63	4368.18231	1097.97	3177278448.0	-1038.68
0383.84	4509.08681	1097.76	3186078456.0	-1038.47
0384.04	4636.36469	1097.56	3194878454.0	-1038.27
0384.29	4463.63636	1097.31	3203678454.0	-1038.02
0384.58	4472.72931	1097.02	3212478450.0	-1037.73
0384.84	4649.99947	1096.76	3221278451.0	-1037.48
0385.07	4763.63474	1096.53	3230078454.0	-1037.24
0385.25	4518.18182	1096.35	3238878454.0	-1037.06
0385.43	4563.64155	1096.17	3247678444.0	-1036.88
0385.63	4490.90705	1095.97	3256478448.0	-1036.68
0385.86	4395.45305	1095.74	3265278451.0	-1036.45
0386.08	4863.63360	1095.52	3274078456.0	-1036.23
0386.31	4386.36762	1095.29	3282878448.0	-1036.00
0386.55	4668.18129	1095.05	3291678449.0	-1035.76
0386.78	4631.81502	1094.82	3300478455.0	-1035.53
0387.01	4513.63739	1094.59	3309278453.0	-1035.30
0387.20	4468.18385	1094.40	3318078449.0	-1035.11
0387.41	4518.17874	1094.19	3326878455.0	-1034.90
0387.62	4640.91067	1093.98	3335678452.0	-1034.69
0387.84	4640.90909	1093.76	3344478452.0	-1034.47
0388.05	4640.90856	1093.55	3353278453.0	-1034.26
0388.29	4786.36364	1093.31	3362078453.0	-1034.02
0388.55	4509.09296	1093.05	3370878449.0	-1033.76
0388.80	4472.72371	1092.80	3379678456.0	-1033.51
0389.02	4886.36475	1092.58	3388478454.0	-1033.29
0389.20	4354.54595	1092.40	3397278453.0	-1033.11
0389.41	4313.63832	1092.19	3406078449.0	-1032.91
0389.61	4272.72679	1091.99	3414878450.0	-1032.70
0389.82	4395.45305	1091.78	3423678453.0	-1032.49
0390.04	4245.45744	1091.56	3432478447.0	-1032.27
0390.25	4172.72680	1091.35	3441278448.0	-1032.06
0390.48	4572.72623	1091.12	3450078450.0	-1031.83
0390.70	4749.99784	1090.90	3458878454.0	-1031.61
0390.91	4663.63848	1090.69	3467678450.0	-1031.40
0391.12	4313.63587	1090.48	3476478451.0	-1031.19
0391.33	4686.36310	1090.27	3485278452.0	-1030.98
0391.56	4495.45301	1090.04	3494078455.0	-1030.75
0391.76	4395.45754	1089.84	3502878449.0	-1030.55
0391.97	4522.72522	1089.63	3511678453.0	-1030.34
0392.23	4681.82031	1089.37	3520478449.0	-1030.08
0392.51	4681.81765	1089.09	3529278450.0	-1029.80
0392.77	4359.08893	1088.83	3538078454.0	-1029.54
0392.99	4459.09040	1088.61	3546878455.0	-1029.32
0393.17	4290.91202	1088.43	3555678449.0	-1029.14
0393.36	4481.81462	1088.24	3564478456.0	-1028.95
0393.55	4118.18322	1088.05	3573278453.0	-1028.76
0393.77	4413.63687	1087.83	3582078452.0	-1028.54
0393.99	4349.99852	1087.61	3590878455.0	-1028.32
0394.22	4400.00100	1087.38	3599678453.0	-1028.09
0394.45	4450.00152	1087.15	3608478450.0	-1027.86
0394.68	4427.27122	1086.92	3617278453.0	-1027.63
0394.89	4354.54446	1086.71	3626078455.0	-1027.42
0395.09	4586.36572	1086.51	3634878451.0	-1027.22
0395.30	4531.81715	1086.30	3643678453.0	-1027.01
0395.52	4418.18433	1086.08	3652478448.0	-1026.79
0395.73	4377.27223	1085.87	3661278449.0	-1026.58
0395.95	4327.26879	1085.65	3670078457.0	-1026.36
0396.18	4345.45701	1085.42	3678878452.0	-1026.13
0396.42	4400.00300	1085.18	3687678446.0	-1025.89
0396.65	4481.81614	1084.95	3696478450.0	-1025.66
0396.86	4149.99906	1084.74	3705278452.0	-1025.45
0397.07	4372.72827	1084.53	3714078450.0	-1025.25
0397.27	4490.90756	1084.33	3722878453.0	-1025.04
0397.48	4036.36501	1084.12	3731678450.0	-1024.83
0397.70	4381.81719	1083.90	3740478452.0	-1024.61
0397.91	4404.54596	1083.69	3749278451.0	-1024.40
0398.11	4204.54354	1083.49	3758078455.0	-1024.20
0398.32	4363.63785	1083.28	3766878452.0	-1023.99
0398.54	4259.09381	1083.06	3775678446.0	-1023.77
0398.76	4272.72242	1082.84	3784478456.0	-1023.55
0398.97	4354.54694	1082.63	3793278453.0	-1023.34
0399.19	4418.18433	1082.41	3802078448.0	-1023.12
0399.40	4563.63429	1082.20	3810878452.0	-1022.91
0399.62	4172.72775	1081.98	3819678451.0	-1022.69
0399.83	4549.99948	1081.77	3828478452.0	-1022.48
0400.11	4200.00239	1081.49	3837278447.0	-1022.20
0400.38	4209.08947	1081.22	3846078450.0	-1021.93
0400.62	4563.63377	1080.98	3854878455.0	-1021.69
0400.82	4127.27367	1080.78	3863678453.0	-1021.49
0401.01	4190.90814	1080.59	3872478455.0	-1021.30
0401.21	4231.81962	1080.39	3881278452.0	-1021.10
0401.43	4204.54641	1080.17	3890078450.0	-1020.89
0401.65	4113.63636	1079.95	3898878450.0	-1020.66
0401.85	4190.90814	1079.75	3907678452.0	-1020.46
0402.09	4127.27554	1079.51	3916478446.0	-1020.22
0402.33	4468.17826	1079.27	3925278453.0	-1019.98
0402.55	4486.36313	1079.05	3934078454.0	-1019.76
0402.76	4109.09371	1078.84	3942878448.0	-1019.56
0402.96	4450.00101	1078.64	3951678446.0	-1019.35
0403.18	4240.90427	1078.42	3960478456.0	-1019.13
0403.39	4268.18279	1078.21	3969278454.0	-1018.92
0403.61	4527.27273	1077.99	3978078454.0	-1018.71
0403.82	4281.82159	1077.78	3986878447.0	-1018.49
0404.08	4295.45357	1077.52	3995678449.0	-1018.23
0404.34	4399.99850	1077.26	4004478452.0	-1017.97
0404.57	4395.45604	1077.03	4013278449.0	-1017.74
0404.77	4286.36266	1076.83	4022078451.0	-1017.54
0404.96	4395.45255	1076.64	4030878455.0	-1017.35
0405.17	4177.27700	1076.43	4039678446.0	-1017.14
0405.39	4113.63309	1076.21	4048478453.0	-1016.92
0405.61	4345.45603	1075.99	4057278450.0	-1016.70
0405.83	4136.36364	1075.77	4066078450.0	-1016.49
0406.02	4318.19065	1075.58	4074878432.0	-1016.29
0406.24	4363.62496	1075.36	4083678455.0	-1016.07
0406.46	4050.00414	1075.14	4092478446.0	-1015.85
0406.68	3968.17686	1074.92	4101278457.0	-1015.64
0406.89	4113.63917	1074.71	4110078451.0	-1015.43
0407.11	4190.91100	1074.49	4118878447.0	-1015.20
0407.32	4172.72585	1074.28	4127678450.0	-1014.99
0407.54	4377.27173	1074.06	4136478452.0	-1014.77
0407.78	4281.82061	1073.82	4145278447.0	-1014.53
0408.05	4477.27324	1073.55	4154078446.0	-1014.26
0408.31	4236.36219	1073.29	4162878449.0	-1014.00
0408.53	4004.54545	1073.07	4171678449.0	-1013.78
0408.71	4218.18038	1072.89	4180478452.0	-1013.60
0408.91	4213.63684	1072.69	4189278451.0	-1013.40
0409.11	4409.08991	1072.49	4198078453.0	-1013.20
0409.33	4095.45641	1072.27	4206878449.0	-1012.98
0409.55	4063.63498	1072.05	4215678452.0	-1012.76
0409.77	4095.45455	1071.83	4224478452.0	-1012.54
0409.99	4186.36506	1071.61	4233278449.0	-1012.32
0410.22	4086.36131	1071.38	4242078454.0	-1012.09
0410.44	4013.63545	1071.16	4250878456.0	-1011.87
0410.64	4122.72868	1070.96	4259678453.0	-1011.67
0410.85	4181.82056	1070.75	4268478448.0	-1011.46
0411.06	4240.90716	1070.54	4277278452.0	-1011.25
0411.29	4063.63683	1070.31	4286078451.0	-1011.02
0411.50	3818.18572	1070.10	4294878442.0	-1010.81
0411.73	-8.41778	1069.87	8711159.0	-1010.58
0411.97	4181.82008	1069.63	17511155.0	-1010.34
0412.21	4168.18229	1069.39	26311154.0	-1010.10
0412.43	4290.90812	1069.17	35111156.0	-1009.88
0412.62	4086.36457	1068.98	43911154.0	-1009.69
0412.83	4168.18182	1068.77	52711154.0	-1009.49
0413.03	4381.81818	1068.57	61511154.0	-1009.28
0413.25	4140.93403	1068.35	70311101.0	-1009.06
0413.47	4045.42880	1068.13	79111157.0	-1008.84
0413.67	4254.54449	1067.93	87911159.0	-1008.64
0413.87	4227.27561	1067.73	96711153.0	-1008.44
0414.08	4290.90812	1067.52	105511155.0	-1008.23
0414.31	4200.00048	1067.29	114311154.0	-1008.00
0414.52	4013.63636	1067.08	123111154.0	-1007.79
0414.75	4118.17901	1066.85	131911160.0	-1007.56
0414.96	4150.00189	1066.64	140711156.0	-1007.35
0415.19	4095.45641	1066.41	149511152.0	-1007.12
0415.39	4027.27868	1066.21	158311139.0	-1006.92
0415.67	3945.44468	1065.93	167111161.0	-1006.64
0415.98	4122.73008	1065.62	175911155.0	-1006.33
0416.25	4104.54685	1065.35	184711152.0	-1006.06
0416.46	4195.45168	1065.14	193511158.0	-1005.85
0416.62	3772.72770	1064.98	202311157.0	-1005.69
0416.81	4154.54404	1064.79	211111160.0	-1005.50
0417.02	3868.18314	1064.58	219911157.0	-1005.30
0417.24	4200.00048	1064.36	228711156.0	-1005.07
0417.47	4340.91057	1064.13	237511153.0	-1004.84
0417.72	3872.72595	1063.88	246311156.0	-1004.59
0417.96	3913.63770	1063.64	255111153.0	-1004.35
0418.19	4000.01045	1063.41	263911130.0	-1004.12
0418.39	4113.62608	1063.21	272711152.0	-1003.92
0418.59	4059.09045	1063.01	281511153.0	-1003.72
0418.79	4013.63682	1062.81	290311152.0	-1003.52
0419.00	4013.63591	1062.60	299111153.0	-1003.31
0419.23	4140.90721	1062.37	307911157.0	-1003.08
0419.45	4131.81912	1062.15	316711155.0	-1002.86
0419.72	4304.54350	1061.88	325511159.0	-1002.60
0419.97	3968.18497	1061.63	334311152.0	-1002.34
0420.21	3959.09046	1061.39	343111153.0	-1002.10
0420.42	4177.27273	1061.18	351911153.0	-1001.89
0420.61	3986.36454	1060.99	360711151.0	-1001.70
0420.80	3681.81274	1060.80	369511164.0	-1001.51
0421.03	3600.00245	1060.57	378311158.0	-1001.29
0421.25	3786.37482	1060.35	387111132.0	-1001.06
0421.46	4022.71722	1060.14	395911154.0	-1000.85
0421.69	3954.54501	1059.91	404711155.0	-1000.62
0421.91	3968.18182	1059.69	413511155.0	-1000.40
0422.13	4104.54452	1059.47	422311157.0	-1000.19
0422.34	3822.72901	1059.26	431111153.0	-0999.97
0422.55	4090.90956	1059.05	439911152.0	-0999.76
0422.76	4013.63317	1058.84	448711159.0	-0999.55
0422.98	4027.27364	1058.62	457511157.0	-0999.33
0423.19	3990.91045	1058.41	466311154.0	-0999.12
0423.42	4031.81589	1058.18	475111159.0	-0998.89
0423.70	3954.54725	1057.90	483911155.0	-0998.61
0423.97	3618.18223	1057.63	492711154.0	-0998.34
0424.21	4300.00049	1057.39	501511153.0	-0998.10
0424.41	3909.09002	1057.19	510311155.0	-0997.90
0424.60	3900.00000	1057.00	519111155.0	-0997.72
0424.79	3913.63770	1056.81	527911152.0	-0997.52
0425.00	3813.63290	1056.60	536711160.0	-0997.31
0425.23	3913.63948	1056.37	545511153.0	-0997.08
0425.44	4349.99901	1056.16	554311155.0	-0996.87
0425.68	3686.36364	1055.92	563111155.0	-0996.63
0425.91	3963.63771	1055.69	571911152.0	-0996.40
0426.13	3681.81902	1055.47	580711150.0	-0996.18
0426.34	3731.81479	1055.26	589511158.0	-0995.97
0426.53	4027.27410	1055.07	598311155.0	-0995.78
0426.75	4059.09137	1054.85	607111154.0	-0995.56
0426.97	3863.63592	1054.63	615911155.0	-0995.34
0427.19	3540.90949	1054.41	624711154.0	-0995.12
0427.42	3745.45157	1054.18	633511161.0	-0994.89
0427.67	3968.18588	1053.93	642311152.0	-0994.64
0427.92	3995.45137	1053.68	651111159.0	-0994.40
0428.14	3968.18317	1053.46	659911156.0	-0994.17
0428.34	4077.27319	1053.26	668711155.0	-0993.97
0428.54	3881.81818	1053.06	677511155.0	-0993.77
0428.75	4018.18319	1052.85	686311152.0	-0993.56
0428.96	3904.54412	1052.64	695111155.0	-0993.35
0429.18	3681.81693	1052.42	703911158.0	-0993.13
0429.39	3822.72814	1052.21	712711156.0	-0992.92
0429.60	3877.27317	1052.00	721511155.0	-0992.71
0429.82	3877.27052	1051.78	730311160.0	-0992.49
0430.03	3722.72896	1051.57	739111156.0	-0992.28
0430.25	3790.91124	1051.35	747911151.0	-0992.06
0430.47	3736.36151	1051.13	756711156.0	-0991.84
0430.68	3795.45498	1050.92	765511155.0	-0991.63
0430.90	3840.90865	1050.70	774311156.0	-0991.41
0431.11	3631.81942	1050.49	783111153.0	-0991.20
0431.35	3850.00131	1050.25	791911150.0	-0990.96
0431.64	3827.26968	1049.96	800711157.0	-0990.68
0431.91	3731.82073	1049.69	809511151.0	-0990.41
0432.12	3699.99664	1049.48	818311159.0	-0990.19
0432.31	3940.91133	1049.29	827111154.0	-0990.00
0432.50	4099.99860	1049.10	835911157.0	-0989.81
0432.70	3581.82062	1048.90	844711151.0	-0989.61
0432.92	3895.45410	1048.68	853511152.0	-0989.39
0433.14	3663.63511	1048.46	862311155.0	-0989.17
0433.38	3877.27405	1048.22	871111152.0	-0988.94
0433.62	3786.36235	1047.98	879911155.0	-0988.69
0433.84	3740.90994	1047.76	888711153.0	-0988.47
0434.06	3522.72647	1047.54	897511155.0	-0988.25
0434.26	3718.18055	1047.34	906311158.0	-0988.05
0434.47	3659.09340	1047.13	915111152.0	-0987.84
0434.67	3663.63636	1046.93	923911152.0	-0987.64
0434.90	3686.36364	1046.70	932711152.0	-0987.41
0435.11	3659.09091	1046.49	941511152.0	-0987.20
0435.36	3604.54382	1046.24	950311156.0	-0986.95
0435.62	4027.27410	1045.98	959111153.0	-0986.69
0435.86	3468.18064	1045.74	967911156.0	-0986.45
0436.08	3749.99957	1045.52	976711157.0	-0986.23
0436.27	3700.00000	1045.33	985511157.0	-0986.05
0436.47	3586.36567	1045.13	994311152.0	-0985.84
0436.68	3822.72727	1044.92	1003111152.0	-0985.63
0436.90	3722.72516	1044.70	1011911157.0	-0985.41
0437.12	3663.63553	1044.48	1020711159.0	-0985.19
0437.33	3622.72686	1044.27	1029511160.0	-0984.98
0437.55	3545.45656	1044.05	1038311155.0	-0984.76
0437.76	3536.36283	1043.84	1047111157.0	-0984.55
0437.99	3581.81777	1043.61	1055911158.0	-0984.33
0438.19	3622.72892	1043.41	1064711154.0	-0984.12
0438.41	3786.36364	1043.19	1073511154.0	-0983.90
0438.63	3509.09211	1042.97	1082311151.0	-0983.68
0438.84	3699.99916	1042.76	1091111153.0	-0983.47
0439.06	3681.81902	1042.54	1099911151.0	-0983.25
0439.32	3709.08796	1042.28	1108711158.0	-0982.99
0439.61	3863.63812	1041.99	1117511154.0	-0982.71
0439.85	3681.81818	1041.75	1126311154.0	-0982.46
0440.07	3699.99832	1041.53	1135111158.0	-0982.24
0440.25	3695.45665	1041.35	1143911153.0	-0982.06
0440.44	3704.54419	1041.16	1152711156.0	-0981.87
0440.65	3545.45495	1040.95	1161511155.0	-0981.66
0440.87	3618.18305	1040.73	1170311152.0	-0981.44
0441.09	3627.27149	1040.51	1179111155.0	-0981.22
0441.32	3536.36283	1040.28	1187911157.0	-0980.99
0441.56	3868.18182	1040.04	1196711157.0	-0980.76
0441.77	3736.36618	1039.83	1205511151.0	-0980.54
0441.98	3477.27115	1039.62	1214311155.0	-0980.33
0442.18	3581.81818	1039.42	1223111155.0	-0980.13
0442.40	3722.72812	1039.20	1231911153.0	-0979.91
0442.62	3481.81858	1038.98	1240711152.0	-0979.69
0442.83	3554.54505	1038.77	1249511153.0	-0979.48
0443.05	3531.81858	1038.55	1258311152.0	-0979.26
0443.30	3677.27398	1038.30	1267111149.0	-0979.01
0443.54	3527.27152	1038.06	1275911152.0	-0978.77
0443.77	3349.99924	1037.83	1284711154.0	-0978.54
0443.98	3495.45415	1037.62	1293511155.0	-0978.33
0444.18	3609.08845	1037.42	1302311161.0	-0978.13
0444.38	3500.00278	1037.22	1311111154.0	-0977.93
0444.60	3422.72611	1037.00	1319911157.0	-0977.71
0444.82	3500.00239	1036.78	1328711151.0	-0977.50
0445.03	3390.90986	1036.57	1337511149.0	-0977.29
0445.22	3754.54289	1036.38	1346311155.0	-0977.09
0445.43	3822.72640	1036.17	1355111157.0	-0976.88
0445.65	3368.18258	1035.95	1363911155.0	-0976.67
0445.86	3581.81818	1035.74	1372711155.0	-0976.45
0446.08	3586.36404	1035.52	1381511154.0	-0976.23
0446.31	3449.99765	1035.29	1390311160.0	-0976.00

#S C A N  C A N C E L L E D
