#XPS-spectrum

#Date/time: 	2018-12-14__19-14-13


#AK pressure: 	can 	mbar
#Pass energy: 	100.0 	eV
#Volt. bias: 	0.0 	V
#Volt. lens: 	-15.0 	V
#Counttime: 	200.0 	ms
#Vor: 	16.0 	V
#Nach: 	5.0 	V
#slope: 	0.613 	V/s
#offset: 	-48.850 	V


#Slope: 	0.0 	mV/s
#Counttime: 	200.0 	ms




#E_k 	 cps 	 Analyser 	 V_hemi 	 V_hemo 	 E_Pass 	 t_meas


1513.88	001960	-1440.93	-1451.73	072.96
1513.56	002030	-1440.60	-1451.40	072.96
1513.29	002095	-1440.33	-1451.13	072.96
1513.03	001885	-1440.08	-1450.88	072.96
1512.76	001800	-1439.80	-1450.60	072.96
1512.45	002020	-1439.50	-1450.30	072.96
1512.12	001665	-1439.16	-1449.96	072.96
1511.78	001705	-1438.82	-1449.62	072.96
1511.44	001460	-1438.48	-1449.28	072.96
1511.09	001225	-1438.13	-1448.93	072.96
1510.76	001085	-1437.80	-1448.60	072.96
1510.45	001040	-1437.49	-1448.29	072.96
1510.15	000975	-1437.19	-1447.99	072.96
1509.85	001095	-1436.90	-1447.70	072.96
1509.56	000965	-1436.60	-1447.40	072.96
1509.26	000845	-1436.30	-1447.10	072.96
1508.94	000945	-1435.98	-1446.78	072.96
1508.62	001120	-1435.66	-1446.46	072.96
1508.29	000850	-1435.33	-1446.13	072.96
1507.97	000990	-1435.01	-1445.81	072.96
1507.63	000855	-1434.67	-1445.47	072.96
1507.24	000955	-1434.29	-1445.09	072.96
1506.88	000945	-1433.92	-1444.72	072.96
1506.55	000955	-1433.59	-1444.39	072.96
1506.26	000935	-1433.30	-1444.10	072.96
1505.97	001025	-1433.02	-1443.82	072.96
1505.68	000970	-1432.72	-1443.52	072.96
1505.35	000955	-1432.39	-1443.19	072.96
1505.00	001055	-1432.04	-1442.84	072.96
1504.67	001080	-1431.71	-1442.51	072.96
1504.34	000985	-1431.39	-1442.19	072.96
1504.04	000980	-1431.08	-1441.88	072.96
1503.73	001075	-1430.78	-1441.58	072.96
1503.39	001005	-1430.43	-1441.23	072.96
1503.04	001035	-1430.08	-1440.88	072.96
1502.71	001165	-1429.75	-1440.55	072.96
1502.40	001200	-1429.44	-1440.24	072.96
1502.09	001315	-1429.14	-1439.94	072.96
1501.79	001010	-1428.84	-1439.64	072.96
1501.48	001010	-1428.53	-1439.33	072.96
1501.16	001155	-1428.21	-1439.01	072.96
1500.84	001025	-1427.88	-1438.68	072.96
1500.52	001065	-1427.56	-1438.36	072.96
1500.20	001245	-1427.24	-1438.04	072.96
1499.88	-000002	-1426.93	-1437.73	072.96
1499.52	001160	-1426.57	-1437.37	072.96
1499.14	001315	-1426.19	-1436.99	072.96
1498.80	001210	-1425.84	-1436.64	072.96
1498.48	001230	-1425.53	-1436.33	072.96
1498.20	001150	-1425.24	-1436.04	072.96
1497.91	001180	-1424.95	-1435.75	072.96
1497.60	001235	-1424.65	-1435.45	072.96
1497.28	001125	-1424.32	-1435.12	072.96
1496.94	001025	-1423.98	-1434.78	072.96
1496.61	001125	-1423.65	-1434.45	072.96
1496.29	000995	-1423.34	-1434.14	072.96
1495.99	001125	-1423.03	-1433.83	072.96
1495.67	001005	-1422.72	-1433.52	072.96
1495.33	000975	-1422.38	-1433.18	072.96
1494.99	001000	-1422.03	-1432.83	072.96
1494.67	001210	-1421.71	-1432.51	072.96
1494.36	001090	-1421.40	-1432.20	072.96
1494.05	001090	-1421.10	-1431.90	072.96
1493.77	001065	-1420.81	-1431.61	072.96
1493.47	001070	-1420.51	-1431.31	072.96
1493.16	001185	-1420.20	-1431.00	072.96
1492.83	001070	-1419.88	-1430.68	072.96
1492.51	001070	-1419.55	-1430.35	072.96
1492.18	000995	-1419.23	-1430.03	072.96
1491.84	001160	-1418.88	-1429.68	072.96
1491.46	001215	-1418.51	-1429.31	072.96
1491.11	001080	-1418.15	-1428.95	072.96
1490.79	001135	-1417.83	-1428.63	072.96
1490.49	001010	-1417.54	-1428.34	072.96
1490.20	001125	-1417.24	-1428.04	072.96
1489.91	001050	-1416.95	-1427.75	072.96
1489.58	001035	-1416.62	-1427.42	072.96
1489.25	001015	-1416.29	-1427.09	072.96
1488.91	001060	-1415.96	-1426.76	072.96
1488.58	001150	-1415.62	-1426.42	072.96
1488.28	001075	-1415.32	-1426.12	072.96
1487.96	001125	-1415.01	-1425.81	072.96
1487.62	001070	-1414.66	-1425.46	072.96
1487.27	001185	-1414.31	-1425.11	072.96
1486.94	000935	-1413.99	-1424.79	072.96
1486.63	000885	-1413.67	-1424.47	072.96
1486.32	001095	-1413.37	-1424.17	072.96
1486.03	000955	-1413.07	-1423.87	072.96
1485.73	001035	-1412.78	-1423.58	072.96
1485.43	001085	-1412.47	-1423.27	072.96
1485.10	001140	-1412.15	-1422.95	072.96
1484.78	001095	-1411.82	-1422.62	072.96
1484.46	001125	-1411.50	-1422.30	072.96
1484.14	001240	-1411.19	-1421.99	072.96
1483.79	000900	-1410.83	-1421.63	072.96
1483.43	001050	-1410.47	-1421.27	072.96
1483.09	001125	-1410.14	-1420.94	072.96
1482.78	000925	-1409.82	-1420.62	072.96
1482.49	001100	-1409.53	-1420.33	072.96
1482.20	000980	-1409.24	-1420.04	072.96
1481.89	001115	-1408.94	-1419.74	072.96
1481.56	001075	-1408.61	-1419.41	072.96
1481.23	001050	-1408.28	-1419.08	072.96
1480.90	001140	-1407.94	-1418.74	072.96
1480.58	001045	-1407.63	-1418.43	072.96
1480.27	001100	-1407.31	-1418.11	072.96
1479.96	001070	-1407.00	-1417.80	072.96
1479.61	000955	-1406.66	-1417.46	072.96
1479.29	001005	-1406.33	-1417.13	072.96
1478.97	001090	-1406.01	-1416.81	072.96
1478.66	001090	-1405.70	-1416.50	072.96
1478.36	001170	-1405.40	-1416.20	072.96
1478.07	001030	-1405.12	-1415.92	072.96
1477.78	001005	-1404.82	-1415.62	072.96
1477.46	001000	-1404.50	-1415.30	072.96
1477.13	001050	-1404.18	-1414.98	072.96
1476.82	001140	-1403.86	-1414.66	072.96
1476.50	001090	-1403.54	-1414.34	072.96
1476.14	001080	-1403.19	-1413.99	072.96
1475.76	001095	-1402.81	-1413.61	072.96
1475.40	001095	-1402.44	-1413.24	072.96
1475.08	001060	-1402.13	-1412.93	072.96
1474.79	001135	-1401.83	-1412.63	072.96
1474.50	001075	-1401.55	-1412.35	072.96
1474.20	000990	-1401.25	-1412.05	072.96
1473.87	001235	-1400.91	-1411.71	072.96
1473.54	000990	-1400.58	-1411.38	072.96
1473.20	001070	-1400.25	-1411.05	072.96
1472.89	001075	-1399.93	-1410.73	072.96
1472.58	001055	-1399.62	-1410.42	072.96
1472.26	001060	-1399.31	-1410.11	072.96
1471.91	001115	-1398.95	-1409.75	072.96
1471.56	001160	-1398.60	-1409.40	072.96
1471.23	001050	-1398.28	-1409.08	072.96
1470.93	001100	-1397.97	-1408.77	072.96
1470.63	001195	-1397.68	-1408.48	072.96
1470.34	001295	-1397.38	-1408.18	072.96
1470.04	001280	-1397.08	-1407.88	072.96
1469.73	001120	-1396.77	-1407.57	072.96
1469.40	001215	-1396.44	-1407.24	072.96
1469.07	001055	-1396.12	-1406.92	072.96
1468.75	001135	-1395.80	-1406.60	072.96
1468.43	001210	-1395.47	-1406.27	072.96
1468.05	001240	-1395.10	-1405.90	072.96
1467.69	001300	-1394.73	-1405.53	072.96
1467.35	001210	-1394.39	-1405.19	072.96
1467.04	001185	-1394.08	-1404.88	072.96
1466.75	001230	-1393.79	-1404.59	072.96
1466.46	001325	-1393.50	-1404.30	072.96
1466.15	001435	-1393.19	-1403.99	072.96
1465.82	001360	-1392.87	-1403.67	072.96
1465.49	001365	-1392.54	-1403.34	072.96
1465.17	001345	-1392.21	-1403.01	072.96
1464.85	001365	-1391.89	-1402.69	072.96
1464.54	001520	-1391.58	-1402.38	072.96
1464.22	001585	-1391.26	-1402.06	072.96
1463.88	001590	-1390.92	-1401.72	072.96
1463.55	001515	-1390.59	-1401.39	072.96
1463.23	001635	-1390.28	-1401.08	072.96
1462.92	001620	-1389.97	-1400.77	072.96
1462.63	001575	-1389.67	-1400.47	072.96
1462.34	001865	-1389.38	-1400.18	072.96
1462.04	001745	-1389.08	-1399.88	072.96
1461.71	001725	-1388.76	-1399.56	072.96
1461.39	001680	-1388.44	-1399.24	072.96
1461.07	001830	-1388.11	-1398.91	072.96
1460.75	001690	-1387.79	-1398.59	072.96
1460.40	001790	-1387.44	-1398.24	072.96
1460.03	001510	-1387.07	-1397.87	072.96
1459.68	001580	-1386.72	-1397.52	072.96
1459.35	001610	-1386.40	-1397.20	072.96
1459.06	001660	-1386.10	-1396.90	072.96
1458.77	001530	-1385.82	-1396.62	072.96
1458.48	001360	-1385.52	-1396.32	072.96
1458.16	001355	-1385.20	-1396.00	072.96
1457.82	001395	-1384.87	-1395.67	072.96
1457.50	001615	-1384.54	-1395.34	072.96
1457.18	001350	-1384.22	-1395.02	072.96
1456.88	001460	-1383.92	-1394.72	072.96
1456.56	001495	-1383.60	-1394.40	072.96
1456.21	001470	-1383.26	-1394.06	072.96
1455.87	001355	-1382.91	-1393.71	072.96
1455.53	001395	-1382.58	-1393.38	072.96
1455.22	001455	-1382.26	-1393.06	072.96
1454.92	001545	-1381.96	-1392.76	072.96
1454.63	001595	-1381.67	-1392.47	072.96
1454.33	001405	-1381.37	-1392.17	072.96
1454.02	001400	-1381.06	-1391.86	072.96
1453.70	001380	-1380.74	-1391.54	072.96
1453.37	001370	-1380.41	-1391.21	072.96
1453.05	001500	-1380.09	-1390.89	072.96
1452.72	001370	-1379.77	-1390.57	072.96
1452.36	001340	-1379.40	-1390.20	072.96
1452.01	001515	-1379.05	-1389.85	072.96
1451.67	001540	-1378.71	-1389.51	072.96
1451.36	001505	-1378.41	-1389.21	072.96
1451.07	001320	-1378.12	-1388.92	072.96
1450.78	001485	-1377.83	-1388.63	072.96
1450.48	001420	-1377.52	-1388.32	072.96
1450.15	001330	-1377.20	-1388.00	072.96
1449.83	001455	-1376.87	-1387.67	072.96
1449.51	001505	-1376.55	-1387.35	072.96
1449.19	001495	-1376.23	-1387.03	072.96
1448.88	001505	-1375.92	-1386.72	072.96
1448.55	001780	-1375.59	-1386.39	072.96
1448.21	001770	-1375.25	-1386.05	072.96
1447.88	001660	-1374.93	-1385.73	072.96
1447.57	002090	-1374.61	-1385.41	072.96
1447.26	002160	-1374.31	-1385.11	072.96
1446.96	001935	-1374.00	-1384.80	072.96
1446.67	001990	-1373.71	-1384.51	072.96
1446.38	002120	-1373.42	-1384.22	072.96
1446.06	002220	-1373.10	-1383.90	072.96
1445.74	002675	-1372.78	-1383.58	072.96
1445.41	002810	-1372.45	-1383.25	072.96
1445.09	002785	-1372.13	-1382.93	072.96
1444.71	002925	-1371.75	-1382.55	072.96
1444.31	002955	-1371.35	-1382.15	072.96
1443.96	002520	-1371.00	-1381.80	072.96
1443.65	002570	-1370.69	-1381.49	072.96
1443.37	002475	-1370.41	-1381.21	072.96
1443.09	002755	-1370.14	-1380.94	072.96
1442.79	002300	-1369.83	-1380.63	072.96
1442.44	002235	-1369.48	-1380.28	072.96
1442.09	002530	-1369.14	-1379.94	072.96
1441.76	002885	-1368.80	-1379.60	072.96
1441.44	002740	-1368.49	-1379.29	072.96
1441.15	002795	-1368.19	-1378.99	072.96
1440.84	002720	-1367.89	-1378.69	072.96
1440.49	002515	-1367.53	-1378.33	072.96
1440.14	002575	-1367.18	-1377.98	072.96
1439.81	002185	-1366.85	-1377.65	072.96
1439.49	002290	-1366.54	-1377.34	072.96
1439.19	002360	-1366.24	-1377.04	072.96
1438.90	002360	-1365.95	-1376.75	072.96
1438.59	002290	-1365.64	-1376.44	072.96
1438.28	002345	-1365.32	-1376.12	072.96
1437.95	002530	-1365.00	-1375.80	072.96
1437.63	002755	-1364.67	-1375.47	072.96
1437.31	002800	-1364.36	-1375.16	072.96
1436.98	003625	-1364.02	-1374.82	072.96
1436.60	005040	-1363.65	-1374.45	072.96
1436.23	007895	-1363.27	-1374.07	072.96
1435.90	010975	-1362.94	-1373.74	072.96
1435.60	013495	-1362.64	-1373.44	072.96
1435.31	013405	-1362.35	-1373.15	072.96
1435.02	013330	-1362.07	-1372.87	072.96
1434.71	011860	-1361.76	-1372.56	072.96
1434.39	009840	-1361.44	-1372.24	072.96
1434.06	008715	-1361.10	-1371.90	072.96
1433.72	006900	-1360.77	-1371.57	072.96
1433.41	006305	-1360.46	-1371.26	072.96
1433.11	006560	-1360.15	-1370.95	072.96
1432.77	007330	-1359.82	-1370.62	072.96
1432.43	009165	-1359.47	-1370.27	072.96
1432.09	011915	-1359.14	-1369.94	072.96
1431.78	013110	-1358.82	-1369.62	072.96
1431.46	012775	-1358.51	-1369.31	072.96
1431.16	012180	-1358.21	-1369.01	072.96
1430.88	010730	-1357.92	-1368.72	072.96
1430.57	009075	-1357.62	-1368.42	072.96
1430.25	007495	-1357.30	-1368.10	072.96
1429.93	006695	-1356.97	-1367.77	072.96
1429.61	005450	-1356.66	-1367.46	072.96
1429.29	005190	-1356.33	-1367.13	072.96
1428.93	004885	-1355.98	-1366.78	072.96
1428.56	004685	-1355.61	-1366.41	072.96
1428.22	004340	-1355.26	-1366.06	072.96
1427.90	004505	-1354.95	-1365.75	072.96
1427.61	003945	-1354.65	-1365.45	072.96
1427.32	004020	-1354.37	-1365.17	072.96
1427.02	003910	-1354.06	-1364.86	072.96
1426.68	003885	-1353.73	-1364.53	072.96
1426.34	003970	-1353.39	-1364.19	072.96
1426.01	003885	-1353.05	-1363.85	072.96
1425.69	004105	-1352.73	-1363.53	072.96
1425.38	003985	-1352.42	-1363.22	072.96
1425.05	004235	-1352.10	-1362.90	072.96
1424.71	003990	-1351.75	-1362.55	072.96
1424.37	004050	-1351.41	-1362.21	072.96
1424.05	003835	-1351.09	-1361.89	072.96
1423.73	003875	-1350.78	-1361.58	072.96
1423.44	003990	-1350.49	-1361.29	072.96
1423.15	003910	-1350.20	-1361.00	072.96
1422.85	004005	-1349.89	-1360.69	072.96
1422.52	003955	-1349.57	-1360.37	072.96
1422.20	004235	-1349.25	-1360.05	072.96
1421.88	004175	-1348.93	-1359.73	072.96
1421.56	004145	-1348.61	-1359.41	072.96
1421.22	004365	-1348.27	-1359.07	072.96
1420.85	004465	-1347.90	-1358.70	072.96
1420.50	004105	-1347.54	-1358.34	072.96
1420.17	004530	-1347.22	-1358.02	072.96
1419.87	004215	-1346.92	-1357.72	072.96
1419.59	004245	-1346.63	-1357.43	072.96
1419.30	004435	-1346.34	-1357.14	072.96
1418.99	004545	-1346.03	-1356.83	072.96
1418.66	004620	-1345.70	-1356.50	072.96
1418.33	004380	-1345.37	-1356.17	072.96
1418.00	004305	-1345.04	-1355.84	072.96
1417.68	004415	-1344.73	-1355.53	072.96
1417.37	004425	-1344.41	-1355.21	072.96
1417.04	004405	-1344.08	-1354.88	072.96
1416.70	004395	-1343.74	-1354.54	072.96
1416.38	004800	-1343.42	-1354.22	072.96
1416.06	004395	-1343.10	-1353.90	072.96
1415.76	004805	-1342.80	-1353.60	072.96
1415.46	004730	-1342.50	-1353.30	072.96
1415.17	004730	-1342.21	-1353.01	072.96
1414.86	004485	-1341.90	-1352.70	072.96
1414.55	004510	-1341.59	-1352.39	072.96
1414.22	004760	-1341.26	-1352.06	072.96
1413.89	004700	-1340.94	-1351.74	072.96
1413.57	004295	-1340.62	-1351.42	072.96
1413.21	004530	-1340.26	-1351.06	072.96
1412.83	004430	-1339.88	-1350.68	072.96
1412.49	004725	-1339.53	-1350.33	072.96
1412.17	004715	-1339.22	-1350.02	072.96
1411.88	004640	-1338.93	-1349.73	072.96
1411.60	004675	-1338.65	-1349.45	072.96
1411.29	004790	-1338.33	-1349.13	072.96
1410.95	004665	-1337.99	-1348.79	072.96
1410.60	004770	-1337.64	-1348.44	072.96
1410.28	004610	-1337.32	-1348.12	072.96
1409.96	005050	-1337.00	-1347.80	072.96
1409.66	004530	-1336.71	-1347.51	072.96
1409.33	004735	-1336.38	-1347.18	072.96
1408.98	004930	-1336.02	-1346.82	072.96
1408.64	004735	-1335.68	-1346.48	072.96
1408.31	004790	-1335.36	-1346.16	072.96
1408.01	004755	-1335.06	-1345.86	072.96
1407.72	004915	-1334.76	-1345.56	072.96
1407.42	004940	-1334.47	-1345.27	072.96
1407.12	004905	-1334.16	-1344.96	072.96
1406.79	004585	-1333.84	-1344.64	072.96
1406.47	004445	-1333.52	-1344.32	072.96
1406.15	004715	-1333.20	-1344.00	072.96
1405.84	004795	-1332.89	-1343.69	072.96
1405.50	004740	-1332.54	-1343.34	072.96
1405.13	004740	-1332.17	-1342.97	072.96
1404.77	004745	-1331.81	-1342.61	072.96
1404.44	004775	-1331.48	-1342.28	072.96
1404.14	004625	-1331.18	-1341.98	072.96
1403.85	004820	-1330.90	-1341.70	072.96
1403.56	004700	-1330.60	-1341.40	072.96
1403.24	004640	-1330.29	-1341.09	072.96
1402.91	004865	-1329.95	-1340.75	072.96
1402.58	004635	-1329.62	-1340.42	072.96
1402.26	004345	-1329.31	-1340.11	072.96
1401.95	004590	-1329.00	-1339.80	072.96
1401.64	004485	-1328.68	-1339.48	072.96
1401.29	004430	-1328.33	-1339.13	072.96
1400.95	004635	-1327.99	-1338.79	072.96
1400.63	004325	-1327.67	-1338.47	072.96
1400.32	004515	-1327.36	-1338.16	072.96
1400.02	004480	-1327.06	-1337.86	072.96
1399.72	004495	-1326.77	-1337.57	072.96
1399.43	004545	-1326.47	-1337.27	072.96
1399.12	004095	-1326.16	-1336.96	072.96
1398.79	004355	-1325.84	-1336.64	072.96
1398.47	004530	-1325.52	-1336.32	072.96
1398.15	004525	-1325.19	-1335.99	072.96
1397.83	004345	-1324.88	-1335.68	072.96
1397.47	004515	-1324.51	-1335.31	072.96
1397.10	004565	-1324.15	-1334.95	072.96
1396.77	004440	-1323.81	-1334.61	072.96
1396.45	004370	-1323.50	-1334.30	072.96
1396.16	004405	-1323.21	-1334.01	072.96
1395.87	004415	-1322.92	-1333.72	072.96
1395.57	004455	-1322.61	-1333.41	072.96
1395.24	004365	-1322.28	-1333.08	072.96
1394.90	004525	-1321.95	-1332.75	072.96
1394.57	004360	-1321.62	-1332.42	072.96
1394.25	004430	-1321.30	-1332.10	072.96
1393.95	004160	-1320.99	-1331.79	072.96
1393.62	004365	-1320.66	-1331.46	072.96
1393.27	004120	-1320.31	-1331.11	072.96
1392.94	004195	-1319.98	-1330.78	072.96
1392.62	004215	-1319.66	-1330.46	072.96
1392.31	004575	-1319.36	-1330.16	072.96
1392.02	004390	-1319.06	-1329.86	072.96
1391.72	004460	-1318.77	-1329.57	072.96
1391.41	004670	-1318.46	-1329.26	072.96
1391.10	004355	-1318.14	-1328.94	072.96
1390.78	004520	-1317.82	-1328.62	072.96
1390.45	004470	-1317.49	-1328.29	072.96
1390.13	004220	-1317.18	-1327.98	072.96
1389.79	004205	-1316.83	-1327.63	072.96
1389.42	004270	-1316.47	-1327.27	072.96
1389.07	004575	-1316.11	-1326.91	072.96
1388.76	004205	-1315.80	-1326.60	072.96
1388.45	004100	-1315.50	-1326.30	072.96
1388.16	004335	-1315.21	-1326.01	072.96
1387.87	004310	-1314.91	-1325.71	072.96
1387.55	004360	-1314.60	-1325.40	072.96
1387.23	004100	-1314.27	-1325.07	072.96
1386.91	004195	-1313.95	-1324.75	072.96
1386.58	004425	-1313.62	-1324.42	072.96
1386.27	003890	-1313.32	-1324.12	072.96
1385.95	004215	-1313.00	-1323.80	072.96
1385.62	004145	-1312.67	-1323.47	072.96
1385.30	004410	-1312.35	-1323.15	072.96
1385.03	004285	-1312.08	-1322.88	072.96
1384.72	004005	-1311.76	-1322.56	072.96
1384.41	004235	-1311.45	-1322.25	072.96
1384.12	004155	-1311.16	-1321.96	072.96
1383.83	004365	-1310.87	-1321.67	072.96
1383.53	004470	-1310.57	-1321.37	072.96
1383.22	004050	-1310.26	-1321.06	072.96
1382.89	004390	-1309.93	-1320.73	072.96
1382.57	004360	-1309.61	-1320.41	072.96
1382.23	004620	-1309.27	-1320.07	072.96
1381.85	004890	-1308.90	-1319.70	072.96
1381.48	005140	-1308.53	-1319.33	072.96
1381.15	004950	-1308.19	-1318.99	072.96
1380.84	005005	-1307.89	-1318.69	072.96
1380.55	004875	-1307.60	-1318.40	072.96
1380.26	004645	-1307.30	-1318.10	072.96
1379.94	004885	-1306.99	-1317.79	072.96
1379.60	004480	-1306.64	-1317.44	072.96
1379.27	004370	-1306.31	-1317.11	072.96
1378.94	004445	-1305.98	-1316.78	072.96
1378.63	004620	-1305.67	-1316.47	072.96
1378.32	004660	-1305.37	-1316.17	072.96
1377.99	004300	-1305.03	-1315.83	072.96
1377.63	004695	-1304.67	-1315.47	072.96
1377.29	004525	-1304.33	-1315.13	072.96
1376.97	004825	-1304.01	-1314.81	072.96
1376.67	004875	-1303.71	-1314.51	072.96
1376.37	004900	-1303.42	-1314.22	072.96
1376.09	004665	-1303.13	-1313.93	072.96
1375.77	004975	-1302.82	-1313.62	072.96
1375.45	004810	-1302.49	-1313.29	072.96
1375.13	005025	-1302.17	-1312.97	072.96
1374.81	004650	-1301.85	-1312.65	072.96
1374.49	004785	-1301.54	-1312.34	072.96
1374.14	004415	-1301.18	-1311.98	072.96
1373.76	004340	-1300.80	-1311.60	072.96
1373.40	004335	-1300.45	-1311.25	072.96
1373.09	004390	-1300.13	-1310.93	072.96
1372.79	004260	-1299.84	-1310.64	072.96
1372.51	004300	-1299.55	-1310.35	072.96
1372.21	004305	-1299.26	-1310.06	072.96
1371.89	004200	-1298.93	-1309.73	072.96
1371.56	004265	-1298.60	-1309.40	072.96
1371.23	004010	-1298.27	-1309.07	072.96
1370.91	004210	-1297.95	-1308.75	072.96
1370.60	003830	-1297.65	-1308.45	072.96
1370.29	004070	-1297.34	-1308.14	072.96
1369.96	004180	-1297.00	-1307.80	072.96
1369.61	004020	-1296.66	-1307.46	072.96
1369.29	003975	-1296.33	-1307.13	072.96
1368.98	003950	-1296.02	-1306.82	072.96
1368.67	004165	-1295.72	-1306.52	072.96
1368.38	004160	-1295.42	-1306.22	072.96
1368.08	004170	-1295.13	-1305.93	072.96
1367.78	003945	-1294.82	-1305.62	072.96
1367.46	004255	-1294.51	-1305.31	072.96
1367.13	003860	-1294.18	-1304.98	072.96
1366.81	004115	-1293.85	-1304.65	072.96
1366.48	004100	-1293.53	-1304.33	072.96
1366.11	003885	-1293.15	-1303.95	072.96
1365.74	003945	-1292.78	-1303.58	072.96
1365.41	003910	-1292.45	-1303.25	072.96
1365.11	003760	-1292.15	-1302.95	072.96
1364.83	003725	-1291.87	-1302.67	072.96
1364.53	004125	-1291.58	-1302.38	072.96
1364.21	003775	-1291.26	-1302.06	072.96
1363.88	004065	-1290.92	-1301.72	072.96
1363.54	003860	-1290.59	-1301.39	072.96
1363.21	004075	-1290.26	-1301.06	072.96
1362.90	004180	-1289.94	-1300.74	072.96
1362.59	003880	-1289.64	-1300.44	072.96
1362.25	003895	-1289.30	-1300.10	072.96
1361.91	003855	-1288.95	-1299.75	072.96
1361.57	003820	-1288.62	-1299.42	072.96
1361.25	003950	-1288.30	-1299.10	072.96
1360.96	003730	-1288.00	-1298.80	072.96
1360.66	004025	-1287.71	-1298.51	072.96
1360.37	003905	-1287.41	-1298.21	072.96
1360.06	003710	-1287.10	-1297.90	072.96
1359.74	003695	-1286.78	-1297.58	072.96
1359.42	003840	-1286.46	-1297.26	072.96
1359.10	003870	-1286.14	-1296.94	072.96
1358.77	003780	-1285.81	-1296.61	072.96
1358.41	003685	-1285.46	-1296.26	072.96
1358.05	003505	-1285.09	-1295.89	072.96
1357.71	003890	-1284.75	-1295.55	072.96
1357.40	003965	-1284.44	-1295.24	072.96
1357.10	003875	-1284.15	-1294.95	072.96
1356.81	003590	-1283.86	-1294.66	072.96
1356.51	003930	-1283.56	-1294.36	072.96
1356.20	003930	-1283.24	-1294.04	072.96
1355.87	003750	-1282.91	-1293.71	072.96
1355.54	004085	-1282.59	-1293.39	072.96
1355.22	003690	-1282.26	-1293.06	072.96
1354.91	003925	-1281.95	-1292.75	072.96
1354.59	003550	-1281.63	-1292.43	072.96
1354.25	003810	-1281.30	-1292.10	072.96
1353.91	003625	-1280.96	-1291.76	072.96
1353.60	003885	-1280.64	-1291.44	072.96
1353.28	003715	-1280.33	-1291.13	072.96
1352.99	003400	-1280.03	-1290.83	072.96
1352.69	003865	-1279.74	-1290.54	072.96
1352.40	003695	-1279.45	-1290.25	072.96
1352.10	003655	-1279.14	-1289.94	072.96
1351.78	003600	-1278.83	-1289.63	072.96
1351.45	003595	-1278.50	-1289.30	072.96
1351.13	003705	-1278.17	-1288.97	072.96
1350.80	004015	-1277.84	-1288.64	072.96
1350.42	003905	-1277.46	-1288.26	072.96
1350.04	003465	-1277.09	-1287.89	072.96
1349.71	003535	-1276.76	-1287.56	072.96
1349.42	003510	-1276.46	-1287.26	072.96
1349.13	003640	-1276.17	-1286.97	072.96
1348.84	003515	-1275.88	-1286.68	072.96
1348.52	003755	-1275.56	-1286.36	072.96
1348.18	003770	-1275.22	-1286.02	072.96
1347.84	003560	-1274.88	-1285.68	072.96
1347.51	003675	-1274.56	-1285.36	072.96
1347.21	003675	-1274.25	-1285.05	072.96
1346.91	003570	-1273.95	-1284.75	072.96
1346.56	003430	-1273.61	-1284.41	072.96
1346.21	003600	-1273.26	-1284.06	072.96
1345.88	003510	-1272.92	-1283.72	072.96
1345.56	003690	-1272.60	-1283.40	072.96
1345.26	003745	-1272.30	-1283.10	072.96
1344.96	003555	-1272.01	-1282.81	072.96
1344.67	003470	-1271.71	-1282.51	072.96
1344.35	003355	-1271.40	-1282.20	072.96
1344.03	003795	-1271.08	-1281.88	072.96
1343.71	003785	-1270.75	-1281.55	072.96
1343.39	003695	-1270.43	-1281.23	072.96
1343.07	003525	-1270.11	-1280.91	072.96
1342.71	003640	-1269.76	-1280.56	072.96
1342.34	003555	-1269.38	-1280.18	072.96
1341.99	003575	-1269.03	-1279.83	072.96
1341.68	003565	-1268.72	-1279.52	072.96
1341.39	003730	-1268.43	-1279.23	072.96
1341.10	003435	-1268.15	-1278.95	072.96
1340.80	003470	-1267.84	-1278.64	072.96
1340.48	003350	-1267.52	-1278.32	072.96
1340.15	003455	-1267.19	-1277.99	072.96
1339.82	003440	-1266.86	-1277.66	072.96
1339.50	003685	-1266.54	-1277.34	072.96
1339.19	003430	-1266.24	-1277.04	072.96
1338.87	003380	-1265.91	-1276.71	072.96
1338.53	003415	-1265.57	-1276.37	072.96
1338.19	003560	-1265.23	-1276.03	072.96
1337.87	003430	-1264.91	-1275.71	072.96
1337.56	003550	-1264.61	-1275.41	072.96
1337.26	003165	-1264.30	-1275.10	072.96
1336.97	003420	-1264.01	-1274.81	072.96
1336.67	003485	-1263.72	-1274.52	072.96
1336.37	003325	-1263.41	-1274.21	072.96
1336.05	003415	-1263.09	-1273.89	072.96
1335.73	003610	-1262.77	-1273.57	072.96
1335.41	003615	-1262.45	-1273.25	072.96
1335.07	003380	-1262.11	-1272.91	072.96
1334.70	003620	-1261.75	-1272.55	072.96
1334.34	003450	-1261.38	-1272.18	072.96
1334.02	003545	-1261.06	-1271.86	072.96
1333.73	003275	-1260.77	-1271.57	072.96
1333.43	003630	-1260.48	-1271.28	072.96
1333.14	003675	-1260.19	-1270.99	072.96
1332.82	003565	-1259.86	-1270.66	072.96
1332.47	003200	-1259.52	-1270.32	072.96
1332.15	003330	-1259.19	-1269.99	072.96
1331.82	003310	-1258.87	-1269.67	072.96
1331.51	003470	-1258.56	-1269.36	072.96
1331.20	003545	-1258.25	-1269.05	072.96
1330.86	003230	-1257.90	-1268.70	072.96
1330.51	003585	-1257.56	-1268.36	072.96
1330.19	003315	-1257.23	-1268.03	072.96
1329.88	003475	-1256.93	-1267.73	072.96
1329.59	003435	-1256.63	-1267.43	072.96
1329.29	003315	-1256.33	-1267.13	072.96
1328.99	003370	-1256.03	-1266.83	072.96
1328.68	003290	-1255.72	-1266.52	072.96
1328.36	003450	-1255.40	-1266.20	072.96
1328.04	003540	-1255.08	-1265.88	072.96
1327.72	-000006	-1254.76	-1265.56	072.96
1327.40	003240	-1254.45	-1265.25	072.96
1327.05	003380	-1254.09	-1264.89	072.96
1326.69	003325	-1253.73	-1264.53	072.96
1326.35	003545	-1253.39	-1264.19	072.96
1326.03	003190	-1253.07	-1263.87	072.96
1325.73	003530	-1252.78	-1263.58	072.96
1325.44	003345	-1252.49	-1263.29	072.96
1325.15	003220	-1252.19	-1262.99	072.96
1324.83	003370	-1251.87	-1262.67	072.96
1324.51	003315	-1251.55	-1262.35	072.96
1324.18	003370	-1251.22	-1262.02	072.96
1323.86	003180	-1250.91	-1261.71	072.96
1323.55	003535	-1250.59	-1261.39	072.96
1323.23	003285	-1250.27	-1261.07	072.96
1322.89	003240	-1249.94	-1260.74	072.96
1322.56	003300	-1249.60	-1260.40	072.96
1322.25	003265	-1249.29	-1260.09	072.96
1321.94	003560	-1248.98	-1259.78	072.96
1321.63	003425	-1248.67	-1259.47	072.96
1321.34	003410	-1248.39	-1259.19	072.96
1321.06	003375	-1248.10	-1258.90	072.96
1320.76	003305	-1247.80	-1258.60	072.96
1320.43	003360	-1247.48	-1258.28	072.96
1320.10	003350	-1247.15	-1257.95	072.96
1319.78	003320	-1246.82	-1257.62	072.96
1319.42	003410	-1246.47	-1257.27	072.96
1319.03	003250	-1246.07	-1256.87	072.96
1318.66	003465	-1245.70	-1256.50	072.96
1318.33	003305	-1245.38	-1256.18	072.96
1318.04	003240	-1245.09	-1255.89	072.96
1317.76	003270	-1244.81	-1255.61	072.96
1317.47	003115	-1244.51	-1255.31	072.96
1317.14	003280	-1244.18	-1254.98	072.96
1316.79	003385	-1243.83	-1254.63	072.96
1316.45	003445	-1243.50	-1254.30	072.96
1316.12	003395	-1243.17	-1253.97	072.96
1315.82	003235	-1242.86	-1253.66	072.96
1315.51	003265	-1242.56	-1253.36	072.96
1315.16	003285	-1242.21	-1253.01	072.96
1314.80	003045	-1241.85	-1252.65	072.96
1314.47	003290	-1241.52	-1252.32	072.96
1314.16	003355	-1241.20	-1252.00	072.96
1313.86	003075	-1240.90	-1251.70	072.96
1313.57	003175	-1240.61	-1251.41	072.96
1313.27	003060	-1240.31	-1251.11	072.96
1312.95	003300	-1239.99	-1250.79	072.96
1312.63	003225	-1239.67	-1250.47	072.96
1312.30	003025	-1239.35	-1250.15	072.96
1311.98	003240	-1239.03	-1249.83	072.96
1311.66	003060	-1238.71	-1249.51	072.96
1311.30	003140	-1238.34	-1249.14	072.96
1310.92	003085	-1237.97	-1248.77	072.96
1310.59	002955	-1237.63	-1248.43	072.96
1310.28	003340	-1237.32	-1248.12	072.96
1309.98	003415	-1237.03	-1247.83	072.96
1309.70	002930	-1236.75	-1247.55	072.96
1309.39	003185	-1236.44	-1247.24	072.96
1309.06	003270	-1236.10	-1246.90	072.96
1308.73	003280	-1235.77	-1246.57	072.96
1308.40	002995	-1235.45	-1246.25	072.96
1308.09	003150	-1235.13	-1245.93	072.96
1307.79	002940	-1234.83	-1245.63	072.96
1307.45	003025	-1234.50	-1245.30	072.96
1307.11	003125	-1234.15	-1244.95	072.96
1306.77	003070	-1233.82	-1244.62	072.96
1306.46	003165	-1233.50	-1244.30	072.96
1306.15	003120	-1233.19	-1243.99	072.96
1305.85	003370	-1232.90	-1243.70	072.96
1305.56	002995	-1232.60	-1243.40	072.96
1305.25	003245	-1232.30	-1243.10	072.96
1304.94	003180	-1231.98	-1242.78	072.96
1304.62	002995	-1231.66	-1242.46	072.96
1304.30	003015	-1231.34	-1242.14	072.96
1303.98	002990	-1231.02	-1241.82	072.96
1303.63	003205	-1230.68	-1241.48	072.96
1303.26	003040	-1230.31	-1241.11	072.96
1302.91	003110	-1229.95	-1240.75	072.96
1302.60	003160	-1229.64	-1240.44	072.96
1302.30	003160	-1229.34	-1240.14	072.96
1302.01	003285	-1229.05	-1239.85	072.96
1301.71	003170	-1228.75	-1239.55	072.96
1301.38	003100	-1228.42	-1239.22	072.96
1301.03	003140	-1228.08	-1238.88	072.96
1300.70	003180	-1227.75	-1238.55	072.96
1300.38	002990	-1227.42	-1238.22	072.96
1300.07	003030	-1227.12	-1237.92	072.96
1299.76	003025	-1226.81	-1237.61	072.96
1299.42	003010	-1226.46	-1237.26	072.96
1299.07	002960	-1226.11	-1236.91	072.96
1298.74	003030	-1225.79	-1236.59	072.96
1298.43	002950	-1225.48	-1236.28	072.96
1298.13	002825	-1225.17	-1235.97	072.96
1297.83	002910	-1224.88	-1235.68	072.96
1297.53	003100	-1224.58	-1235.38	072.96
1297.22	002915	-1224.26	-1235.06	072.96
1296.90	003185	-1223.94	-1234.74	072.96
1296.58	003020	-1223.62	-1234.42	072.96
1296.26	003045	-1223.30	-1234.10	072.96
1295.93	002975	-1222.97	-1233.77	072.96
1295.57	002830	-1222.61	-1233.41	072.96
1295.20	002955	-1222.25	-1233.05	072.96
1294.87	002910	-1221.91	-1232.71	072.96
1294.56	002805	-1221.60	-1232.40	072.96
1294.27	003010	-1221.31	-1232.11	072.96
1293.98	003100	-1221.03	-1231.83	072.96
1293.68	002945	-1220.73	-1231.53	072.96
1293.36	003070	-1220.40	-1231.20	072.96
1293.03	002890	-1220.07	-1230.87	072.96
1292.70	002925	-1219.74	-1230.54	072.96
1292.38	003035	-1219.42	-1230.22	072.96
1292.07	003010	-1219.12	-1229.92	072.96
1291.75	002860	-1218.80	-1229.60	072.96
1291.41	002850	-1218.46	-1229.26	072.96
1291.09	002905	-1218.13	-1228.93	072.96
1290.77	003075	-1217.81	-1228.61	072.96
1290.46	002915	-1217.51	-1228.31	072.96
1290.16	002970	-1217.20	-1228.00	072.96
1289.87	002795	-1216.92	-1227.72	072.96
1289.57	003045	-1216.61	-1227.41	072.96
1289.26	002920	-1216.31	-1227.11	072.96
1288.94	002945	-1215.98	-1226.78	072.96
1288.62	002920	-1215.66	-1226.46	072.96
1288.29	002875	-1215.34	-1226.14	072.96
1287.93	002915	-1214.98	-1225.78	072.96
1287.55	003020	-1214.60	-1225.40	072.96
1287.21	003125	-1214.25	-1225.05	072.96
1286.89	002865	-1213.94	-1224.74	072.96
1286.60	002875	-1213.64	-1224.44	072.96
1286.32	003020	-1213.36	-1224.16	072.96
1286.02	002820	-1213.06	-1223.86	072.96
1285.69	002815	-1212.73	-1223.53	072.96
1285.34	002955	-1212.39	-1223.19	072.96
1285.00	002760	-1212.04	-1222.84	072.96
1284.68	003090	-1211.72	-1222.52	072.96
1284.38	002890	-1211.42	-1222.22	072.96
1284.06	002935	-1211.11	-1221.91	072.96
1283.72	002985	-1210.76	-1221.56	072.96
1283.37	002905	-1210.41	-1221.21	072.96
1283.03	002920	-1210.08	-1220.88	072.96
1282.73	002810	-1209.77	-1220.57	072.96
1282.43	002915	-1209.48	-1220.28	072.96
1282.15	003060	-1209.19	-1219.99	072.96
1281.84	002595	-1208.89	-1219.69	072.96
1281.52	003135	-1208.56	-1219.36	072.96
1281.19	002790	-1208.24	-1219.04	072.96
1280.86	002620	-1207.91	-1218.71	072.96
1280.55	002895	-1207.59	-1218.39	072.96
1280.22	002895	-1207.27	-1218.07	072.96
1279.86	002925	-1206.90	-1217.70	072.96
1279.49	002830	-1206.54	-1217.34	072.96
1279.15	002905	-1206.20	-1217.00	072.96
1278.85	002820	-1205.90	-1216.70	072.96
1278.56	002890	-1205.60	-1216.40	072.96
1278.27	002940	-1205.31	-1216.11	072.96
1277.96	002825	-1205.00	-1215.80	072.96
1277.63	002805	-1204.67	-1215.47	072.96
1277.30	002700	-1204.34	-1215.14	072.96
1276.97	002795	-1204.02	-1214.82	072.96
1276.66	002750	-1203.70	-1214.50	072.96
1276.36	002800	-1203.40	-1214.20	072.96
1276.02	003010	-1203.06	-1213.86	072.96
1275.68	002860	-1202.73	-1213.53	072.96
1275.35	002655	-1202.39	-1213.19	072.96
1275.04	002815	-1202.08	-1212.88	072.96
1274.73	002565	-1201.77	-1212.57	072.96
1274.44	002835	-1201.48	-1212.28	072.96
1274.14	002715	-1201.19	-1211.99	072.96
1273.84	002685	-1200.88	-1211.68	072.96
1273.52	002845	-1200.56	-1211.36	072.96
1273.20	002715	-1200.24	-1211.04	072.96
1272.87	002785	-1199.92	-1210.72	072.96
1272.56	002945	-1199.60	-1210.40	072.96
1272.20	002635	-1199.25	-1210.05	072.96
1271.83	002870	-1198.88	-1209.68	072.96
1271.48	002850	-1198.53	-1209.33	072.96
1271.16	002820	-1198.21	-1209.01	072.96
1270.87	002810	-1197.91	-1208.71	072.96
1270.59	002885	-1197.63	-1208.43	072.96
1270.29	002575	-1197.33	-1208.13	072.96
1269.95	002620	-1197.00	-1207.80	072.96
1269.62	002580	-1196.66	-1207.46	072.96
1269.29	002820	-1196.33	-1207.13	072.96
1268.97	002635	-1196.01	-1206.81	072.96
1268.66	002680	-1195.71	-1206.51	072.96
1268.34	002735	-1195.39	-1206.19	072.96
1268.00	002655	-1195.04	-1205.84	072.96
1267.66	002575	-1194.70	-1205.50	072.96
1267.34	002515	-1194.38	-1205.18	072.96
1267.02	002855	-1194.07	-1204.87	072.96
1266.73	002555	-1193.77	-1204.57	072.96
1266.44	002985	-1193.48	-1204.28	072.96
1266.14	002735	-1193.18	-1203.98	072.96
1265.82	002850	-1192.86	-1203.66	072.96
1265.50	002605	-1192.54	-1203.34	072.96
1265.17	002625	-1192.21	-1203.01	072.96
1264.85	002815	-1191.89	-1202.69	072.96
1264.52	002725	-1191.57	-1202.37	072.96
1264.16	002720	-1191.21	-1202.01	072.96
1263.81	002700	-1190.85	-1201.65	072.96
1263.47	002895	-1190.52	-1201.32	072.96
1263.17	002555	-1190.22	-1201.02	072.96
1262.87	002660	-1189.92	-1200.72	072.96
1262.58	002740	-1189.63	-1200.43	072.96
1262.27	002700	-1189.32	-1200.12	072.96
1261.95	002890	-1188.99	-1199.79	072.96
1261.62	002770	-1188.67	-1199.47	072.96
1261.30	002680	-1188.35	-1199.15	072.96
1260.99	002780	-1188.03	-1198.83	072.96
1260.67	002765	-1187.72	-1198.52	072.96
1260.34	002750	-1187.38	-1198.18	072.96
1260.01	002525	-1187.05	-1197.85	072.96
1259.68	002825	-1186.73	-1197.53	072.96
1259.37	002695	-1186.41	-1197.21	072.96
1259.07	002695	-1186.11	-1196.91	072.96
1258.78	002710	-1185.82	-1196.62	072.96
1258.48	002585	-1185.53	-1196.33	072.96
1258.18	002755	-1185.23	-1196.03	072.96
1257.87	002705	-1184.91	-1195.71	072.96
1257.54	002390	-1184.59	-1195.39	072.96
1257.22	002600	-1184.27	-1195.07	072.96
1256.90	002475	-1183.95	-1194.75	072.96
1256.53	002785	-1183.58	-1194.38	072.96
1256.15	002615	-1183.20	-1194.00	072.96
1255.80	002755	-1182.85	-1193.65	072.96
1255.49	002640	-1182.53	-1193.33	072.96
1255.20	002645	-1182.24	-1193.04	072.96
1254.91	002550	-1181.96	-1192.76	072.96
1254.61	002615	-1181.65	-1192.45	072.96
1254.27	002675	-1181.31	-1192.11	072.96
1253.92	002735	-1180.97	-1191.77	072.96
1253.60	002655	-1180.64	-1191.44	072.96
1253.28	002400	-1180.33	-1191.13	072.96
1252.98	002635	-1180.02	-1190.82	072.96
1252.66	002600	-1179.70	-1190.50	072.96
1252.30	002880	-1179.35	-1190.15	072.96
1251.96	002680	-1179.00	-1189.80	072.96
1251.63	002860	-1178.67	-1189.47	072.96
1251.32	002665	-1178.37	-1189.17	072.96
1251.03	002630	-1178.08	-1188.88	072.96
1250.73	002765	-1177.78	-1188.58	072.96
1250.43	002710	-1177.47	-1188.27	072.96
1250.10	002615	-1177.15	-1187.95	072.96
1249.78	002600	-1176.82	-1187.62	072.96
1249.46	002655	-1176.50	-1187.30	072.96
1249.15	002605	-1176.19	-1186.99	072.96
1248.81	002535	-1175.85	-1186.65	072.96
1248.43	002890	-1175.48	-1186.28	072.96
1248.08	002780	-1175.12	-1185.92	072.96
1247.75	002595	-1174.80	-1185.60	072.96
1247.45	002605	-1174.49	-1185.29	072.96
1247.16	002565	-1174.20	-1185.00	072.96
1246.87	002845	-1173.91	-1184.71	072.96
1246.55	002690	-1173.60	-1184.40	072.96
1246.22	002640	-1173.27	-1184.07	072.96
1245.90	002565	-1172.94	-1183.74	072.96
1245.57	002795	-1172.62	-1183.42	072.96
1245.26	002635	-1172.30	-1183.10	072.96
1244.95	002895	-1171.99	-1182.79	072.96
1244.61	002860	-1171.66	-1182.46	072.96
1244.27	002515	-1171.31	-1182.11	072.96
1243.93	002795	-1170.98	-1181.78	072.96
1243.62	002600	-1170.66	-1181.46	072.96
1243.32	002560	-1170.36	-1181.16	072.96
1243.02	002650	-1170.07	-1180.87	072.96
1242.73	002625	-1169.77	-1180.57	072.96
1242.43	002695	-1169.47	-1180.27	072.96
1242.11	002690	-1169.16	-1179.96	072.96
1241.79	002635	-1168.83	-1179.63	072.96
1241.47	002665	-1168.51	-1179.31	072.96
1241.14	002595	-1168.19	-1178.99	072.96
1240.78	002605	-1167.83	-1178.63	072.96
1240.41	002575	-1167.46	-1178.26	072.96
1240.07	002590	-1167.11	-1177.91	072.96
1239.76	002520	-1166.80	-1177.60	072.96
1239.47	002630	-1166.52	-1177.32	072.96
1239.18	002380	-1166.23	-1177.03	072.96
1238.87	002795	-1165.91	-1176.71	072.96
1238.54	002660	-1165.58	-1176.38	072.96
1238.20	002545	-1165.24	-1176.04	072.96
1237.87	002635	-1164.92	-1175.72	072.96
1237.56	002600	-1164.60	-1175.40	072.96
1237.26	002545	-1164.30	-1175.10	072.96
1236.93	002675	-1163.98	-1174.78	072.96
1236.58	002805	-1163.63	-1174.43	072.96
1236.24	002830	-1163.28	-1174.08	072.96
1235.92	002785	-1162.97	-1173.77	072.96
1235.62	003140	-1162.66	-1173.46	072.96
1235.32	003230	-1162.37	-1173.17	072.96
1235.03	003670	-1162.08	-1172.88	072.96
1234.72	003720	-1161.77	-1172.57	072.96
1234.41	003765	-1161.45	-1172.25	072.96
1234.09	003855	-1161.13	-1171.93	072.96
1233.76	003635	-1160.81	-1171.61	072.96
1233.44	003650	-1160.49	-1171.29	072.96
1233.10	003205	-1160.15	-1170.95	072.96
1232.72	003100	-1159.77	-1170.57	072.96
1232.37	003035	-1159.41	-1170.21	072.96
1232.05	002755	-1159.09	-1169.89	072.96
1231.75	003185	-1158.80	-1169.60	072.96
1231.47	002950	-1158.51	-1169.31	072.96
1231.17	002745	-1158.22	-1169.02	072.96
1230.86	002795	-1157.90	-1168.70	072.96
1230.53	002590	-1157.57	-1168.37	072.96
1230.20	002690	-1157.24	-1168.04	072.96
1229.87	002675	-1156.92	-1167.72	072.96
1229.56	002695	-1156.60	-1167.40	072.96
1229.25	002655	-1156.30	-1167.10	072.96
1228.92	002670	-1155.96	-1166.76	072.96
1228.58	002935	-1155.63	-1166.43	072.96
1228.26	002710	-1155.30	-1166.10	072.96
1227.95	002765	-1154.99	-1165.79	072.96
1227.64	002790	-1154.69	-1165.49	072.96
1227.34	002685	-1154.39	-1165.19	072.96
1227.06	002790	-1154.10	-1164.90	072.96
1226.75	002570	-1153.80	-1164.60	072.96
1226.44	002545	-1153.48	-1164.28	072.96
1226.12	002650	-1153.16	-1163.96	072.96
1225.79	002605	-1152.83	-1163.63	072.96
1225.46	002615	-1152.51	-1163.31	072.96
1225.09	002640	-1152.14	-1162.94	072.96
1224.72	002590	-1151.76	-1162.56	072.96
1224.38	002585	-1151.42	-1162.22	072.96
1224.07	002665	-1151.11	-1161.91	072.96
1223.79	002590	-1150.83	-1161.63	072.96
1223.50	002390	-1150.54	-1161.34	072.96
1223.19	002485	-1150.23	-1161.03	072.96
1222.85	002490	-1149.90	-1160.70	072.96
1222.52	002435	-1149.56	-1160.36	072.96
1222.19	002745	-1149.24	-1160.04	072.96
1221.87	002435	-1148.92	-1159.72	072.96
1221.56	002780	-1148.61	-1159.41	072.96
1221.23	002695	-1148.27	-1159.07	072.96
1220.88	002440	-1147.93	-1158.73	072.96
1220.54	002635	-1147.58	-1158.38	072.96
1220.21	002445	-1147.26	-1158.06	072.96
1219.91	002470	-1146.95	-1157.75	072.96
1219.61	002835	-1146.65	-1157.45	072.96
1219.31	002470	-1146.36	-1157.16	072.96
1219.01	002695	-1146.06	-1156.86	072.96
1218.70	002590	-1145.74	-1156.54	072.96
1218.38	002745	-1145.42	-1156.22	072.96
1218.05	002455	-1145.10	-1155.90	072.96
1217.72	002570	-1144.77	-1155.57	072.96
1217.38	002905	-1144.42	-1155.22	072.96
1217.01	002540	-1144.06	-1154.86	072.96
1216.67	002575	-1143.71	-1154.51	072.96
1216.35	002595	-1143.40	-1154.20	072.96
1216.05	002475	-1143.10	-1153.90	072.96
1215.76	002685	-1142.81	-1153.61	072.96
1215.47	002745	-1142.51	-1153.31	072.96
1215.14	002615	-1142.19	-1152.99	072.96
1214.82	002450	-1141.86	-1152.66	072.96
1214.49	002820	-1141.53	-1152.33	072.96
1214.16	002790	-1141.21	-1152.01	072.96
1213.85	002505	-1140.89	-1151.69	072.96
1213.53	002575	-1140.58	-1151.38	072.96
1213.20	002555	-1140.24	-1151.04	072.96
1212.86	002590	-1139.90	-1150.70	072.96
1212.54	002770	-1139.58	-1150.38	072.96
1212.23	002765	-1139.27	-1150.07	072.96
1211.92	002800	-1138.97	-1149.77	072.96
1211.63	002610	-1138.68	-1149.48	072.96
1211.33	002705	-1138.38	-1149.18	072.96
1211.03	002650	-1138.07	-1148.87	072.96
1210.72	002635	-1137.76	-1148.56	072.96
1210.39	002705	-1137.43	-1148.23	072.96
1210.07	002600	-1137.11	-1147.91	072.96
1209.75	002715	-1136.79	-1147.59	072.96
1209.38	002640	-1136.42	-1147.22	072.96
1209.01	002765	-1136.05	-1146.85	072.96
1208.68	002485	-1135.72	-1146.52	072.96
1208.38	002605	-1135.42	-1146.22	072.96
1208.08	002630	-1135.13	-1145.93	072.96
1207.80	002495	-1134.84	-1145.64	072.96
1207.48	002705	-1134.53	-1145.33	072.96
1207.15	002500	-1134.19	-1144.99	072.96
1206.81	002700	-1133.86	-1144.66	072.96
1206.48	002765	-1133.53	-1144.33	072.96
1206.17	002685	-1133.22	-1144.02	072.96
1205.87	002815	-1132.92	-1143.72	072.96
1205.54	002455	-1132.59	-1143.39	072.96
1205.20	002510	-1132.25	-1143.05	072.96
1204.86	002725	-1131.90	-1142.70	072.96
1204.54	002685	-1131.58	-1142.38	072.96
1204.23	002890	-1131.28	-1142.08	072.96
1203.93	002675	-1130.98	-1141.78	072.96
1203.64	002455	-1130.68	-1141.48	072.96
1203.34	002840	-1130.38	-1141.18	072.96
1203.02	002520	-1130.06	-1140.86	072.96
1202.70	002790	-1129.74	-1140.54	072.96
1202.37	002730	-1129.42	-1140.22	072.96
1202.06	002680	-1129.11	-1139.91	072.96
1201.71	002755	-1128.76	-1139.56	072.96
1201.35	002670	-1128.39	-1139.19	072.96
1201.00	002740	-1128.05	-1138.85	072.96
1200.69	002910	-1127.73	-1138.53	072.96
1200.39	002860	-1127.43	-1138.23	072.96
1200.10	002575	-1127.14	-1137.94	072.96
1199.80	002665	-1126.85	-1137.65	072.96
1199.49	002660	-1126.53	-1137.33	072.96
1199.16	002905	-1126.21	-1137.01	072.96
1198.83	002650	-1125.88	-1136.68	072.96
1198.51	002905	-1125.55	-1136.35	072.96
1198.20	002775	-1125.24	-1136.04	072.96
1197.88	002775	-1124.93	-1135.73	072.96
1197.55	002755	-1124.59	-1135.39	072.96
1197.22	002615	-1124.26	-1135.06	072.96
1196.89	002785	-1123.94	-1134.74	072.96
1196.58	002850	-1123.63	-1134.43	072.96
1196.28	002800	-1123.33	-1134.13	072.96
1195.99	002845	-1123.04	-1133.84	072.96
1195.70	002960	-1122.75	-1133.55	072.96
1195.40	003105	-1122.44	-1133.24	072.96
1195.09	002970	-1122.13	-1132.93	072.96
1194.76	002945	-1121.80	-1132.60	072.96
1194.43	003155	-1121.48	-1132.28	072.96
1194.10	002850	-1121.15	-1131.95	072.96
1193.70	003150	-1120.75	-1131.55	072.96
1193.32	003055	-1120.36	-1131.16	072.96
1192.99	003000	-1120.03	-1130.83	072.96
1192.69	003125	-1119.73	-1130.53	072.96
1192.41	002935	-1119.46	-1130.26	072.96
1192.13	002905	-1119.17	-1129.97	072.96
1191.80	002965	-1118.85	-1129.65	072.96
1191.46	003090	-1118.50	-1129.30	072.96
1191.12	003075	-1118.17	-1128.97	072.96
1190.79	002965	-1117.84	-1128.64	072.96
1190.48	003195	-1117.53	-1128.33	072.96
1190.18	003085	-1117.22	-1128.02	072.96
1189.83	003010	-1116.88	-1127.68	072.96
1189.48	003360	-1116.53	-1127.33	072.96
1189.14	003220	-1116.19	-1126.99	072.96
1188.82	003440	-1115.87	-1126.67	072.96
1188.53	003260	-1115.57	-1126.37	072.96
1188.24	003330	-1115.28	-1126.08	072.96
1187.94	003505	-1114.98	-1125.78	072.96
1187.62	003870	-1114.67	-1125.47	072.96
1187.32	003570	-1114.36	-1125.16	072.96
1187.04	004025	-1114.09	-1124.89	072.96
1186.72	004220	-1113.76	-1124.56	072.96
1186.41	004220	-1113.45	-1124.25	072.96
1186.06	004395	-1113.10	-1123.90	072.96
1185.68	004935	-1112.72	-1123.52	072.96
1185.32	005110	-1112.36	-1123.16	072.96
1185.01	005305	-1112.05	-1122.85	072.96
1184.72	005455	-1111.76	-1122.56	072.96
1184.43	005550	-1111.47	-1122.27	072.96
1184.13	005625	-1111.17	-1121.97	072.96
1183.81	005660	-1110.86	-1121.66	072.96
1183.48	005785	-1110.52	-1121.32	072.96
1183.14	005760	-1110.18	-1120.98	072.96
1182.82	005390	-1109.86	-1120.66	072.96
1182.51	005110	-1109.55	-1120.35	072.96
1182.19	004955	-1109.23	-1120.03	072.96
1181.85	004645	-1108.89	-1119.69	072.96
1181.51	004510	-1108.56	-1119.36	072.96
1181.20	004655	-1108.24	-1119.04	072.96
1180.89	004120	-1107.93	-1118.73	072.96
1180.59	004265	-1107.63	-1118.43	072.96
1180.29	004200	-1107.33	-1118.13	072.96
1179.99	004250	-1107.03	-1117.83	072.96
1179.68	004025	-1106.72	-1117.52	072.96
1179.37	004000	-1106.41	-1117.21	072.96
1179.04	003985	-1106.08	-1116.88	072.96
1178.72	003775	-1105.76	-1116.56	072.96
1178.39	003955	-1105.43	-1116.23	072.96
1178.01	003915	-1105.05	-1115.85	072.96
1177.65	003605	-1104.69	-1115.49	072.96
1177.32	003885	-1104.36	-1115.16	072.96
1177.02	003670	-1104.07	-1114.87	072.96
1176.73	003645	-1103.78	-1114.58	072.96
1176.44	003795	-1103.49	-1114.29	072.96
1176.13	003795	-1103.17	-1113.97	072.96
1175.79	003655	-1102.83	-1113.63	072.96
1175.45	003745	-1102.49	-1113.29	072.96
1175.13	003650	-1102.18	-1112.98	072.96
1174.81	003350	-1101.86	-1112.66	072.96
1174.51	003805	-1101.56	-1112.36	072.96
1174.17	003430	-1101.22	-1112.02	072.96
1173.83	003735	-1100.87	-1111.67	072.96
1173.50	003935	-1100.55	-1111.35	072.96
1173.18	003620	-1100.22	-1111.02	072.96
1172.88	003885	-1099.92	-1110.72	072.96
1172.58	003615	-1099.63	-1110.43	072.96
1172.29	003990	-1099.33	-1110.13	072.96
1171.98	003955	-1099.02	-1109.82	072.96
1171.66	003685	-1098.70	-1109.50	072.96
1171.32	003760	-1098.37	-1109.17	072.96
1171.00	003840	-1098.04	-1108.84	072.96
1170.69	004050	-1097.73	-1108.53	072.96
1170.33	004000	-1097.38	-1108.18	072.96
1169.97	004075	-1097.01	-1107.81	072.96
1169.63	004095	-1096.68	-1107.48	072.96
1169.31	004235	-1096.35	-1107.15	072.96
1169.01	004305	-1096.06	-1106.86	072.96
1168.73	004270	-1095.77	-1106.57	072.96
1168.43	004360	-1095.47	-1106.27	072.96
1168.10	004730	-1095.15	-1105.95	072.96
1167.77	004685	-1094.82	-1105.62	072.96
1167.44	004955	-1094.49	-1105.29	072.96
1167.13	004890	-1094.17	-1104.97	072.96
1166.82	005170	-1093.86	-1104.66	072.96
1166.49	005485	-1093.54	-1104.34	072.96
1166.16	005190	-1093.20	-1104.00	072.96
1165.82	005325	-1092.87	-1103.67	072.96
1165.50	005330	-1092.54	-1103.34	072.96
1165.19	005290	-1092.23	-1103.03	072.96
1164.89	004965	-1091.94	-1102.74	072.96
1164.61	005105	-1091.65	-1102.45	072.96
1164.32	005055	-1091.36	-1102.16	072.96
1164.00	004905	-1091.05	-1101.85	072.96
1163.68	004860	-1090.73	-1101.53	072.96
1163.36	004710	-1090.40	-1101.20	072.96
1163.04	004705	-1090.08	-1100.88	072.96
1162.70	004550	-1089.74	-1100.54	072.96
1162.32	004345	-1089.37	-1100.17	072.96
1161.96	004460	-1089.00	-1099.80	072.96
1161.63	004290	-1088.67	-1099.47	072.96
1161.33	004420	-1088.37	-1099.17	072.96
1161.04	004365	-1088.08	-1098.88	072.96
1160.75	004295	-1087.79	-1098.59	072.96
1160.43	004055	-1087.47	-1098.27	072.96
1160.08	004250	-1087.13	-1097.93	072.96
1159.75	003820	-1086.79	-1097.59	072.96
1159.42	004150	-1086.47	-1097.27	072.96
1159.12	003990	-1086.16	-1096.96	072.96
1158.81	003930	-1085.85	-1096.65	072.96
1158.47	003965	-1085.51	-1096.31	072.96
1158.11	003965	-1085.16	-1095.96	072.96
1157.78	003970	-1084.82	-1095.62	072.96
1157.46	003850	-1084.51	-1095.31	072.96
1157.17	004075	-1084.21	-1095.01	072.96
1156.87	004185	-1083.92	-1094.72	072.96
1156.58	003780	-1083.62	-1094.42	072.96
1156.27	003995	-1083.31	-1094.11	072.96
1155.94	003725	-1082.99	-1093.79	072.96
1155.62	-000007	-1082.66	-1093.46	072.96
1155.30	004140	-1082.34	-1093.14	072.96
1154.97	003720	-1082.02	-1092.82	072.96
1154.62	004075	-1081.66	-1092.46	072.96
1154.25	003805	-1081.29	-1092.09	072.96
1153.90	003615	-1080.95	-1091.75	072.96
1153.59	003920	-1080.64	-1091.44	072.96
1153.31	004055	-1080.35	-1091.15	072.96
1153.02	003820	-1080.07	-1090.87	072.96
1152.72	003930	-1079.76	-1090.56	072.96
1152.39	003710	-1079.44	-1090.24	072.96
1152.06	003780	-1079.10	-1089.90	072.96
1151.72	003875	-1078.77	-1089.57	072.96
1151.41	003820	-1078.45	-1089.25	072.96
1151.10	004105	-1078.14	-1088.94	072.96
1150.78	003895	-1077.82	-1088.62	072.96
1150.44	003575	-1077.48	-1088.28	072.96
1150.10	003760	-1077.15	-1087.95	072.96
1149.79	003970	-1076.83	-1087.63	072.96
1149.49	003975	-1076.53	-1087.33	072.96
1149.19	004030	-1076.24	-1087.04	072.96
1148.90	003815	-1075.94	-1086.74	072.96
1148.60	003945	-1075.65	-1086.45	072.96
1148.28	003505	-1075.33	-1086.13	072.96
1147.96	003810	-1075.01	-1085.81	072.96
1147.64	003870	-1074.68	-1085.48	072.96
1147.31	003755	-1074.36	-1085.16	072.96
1146.97	004145	-1074.02	-1084.82	072.96
1146.60	003795	-1073.64	-1084.44	072.96
1146.25	003740	-1073.29	-1084.09	072.96
1145.93	003850	-1072.97	-1083.77	072.96
1145.63	003795	-1072.67	-1083.47	072.96
1145.34	003875	-1072.39	-1083.19	072.96
1145.04	003820	-1072.09	-1082.89	072.96
1144.72	003825	-1071.77	-1082.57	072.96
1144.39	003760	-1071.43	-1082.23	072.96
1144.06	003590	-1071.10	-1081.90	072.96
1143.74	003690	-1070.78	-1081.58	072.96
1143.43	003635	-1070.47	-1081.27	072.96
1143.11	003590	-1070.16	-1080.96	072.96
1142.78	004010	-1069.82	-1080.62	072.96
1142.43	004060	-1069.48	-1080.28	072.96
1142.11	003600	-1069.15	-1079.95	072.96
1141.80	003635	-1068.84	-1079.64	072.96
1141.49	003800	-1068.53	-1079.33	072.96
1141.20	003595	-1068.24	-1079.04	072.96
1140.90	003690	-1067.94	-1078.74	072.96
1140.59	003895	-1067.63	-1078.43	072.96
1140.27	003970	-1067.31	-1078.11	072.96
1139.94	003790	-1066.99	-1077.79	072.96
1139.62	003480	-1066.67	-1077.47	072.96
1139.30	003755	-1066.34	-1077.14	072.96
1138.95	003640	-1065.99	-1076.79	072.96
1138.58	003790	-1065.63	-1076.43	072.96
1138.25	003780	-1065.29	-1076.09	072.96
1137.94	003610	-1064.99	-1075.79	072.96
1137.65	003590	-1064.70	-1075.50	072.96
1137.36	003560	-1064.40	-1075.20	072.96
1137.06	003570	-1064.10	-1074.90	072.96
1136.73	003895	-1063.78	-1074.58	072.96
1136.41	003875	-1063.45	-1074.25	072.96
1136.08	003510	-1063.12	-1073.92	072.96
1135.76	003995	-1062.80	-1073.60	072.96
1135.45	003665	-1062.49	-1073.29	072.96
1135.14	003430	-1062.18	-1072.98	072.96
1134.80	003930	-1061.85	-1072.65	072.96
1134.47	003610	-1061.52	-1072.32	072.96
1134.15	003735	-1061.19	-1071.99	072.96
1133.84	003435	-1060.88	-1071.68	072.96
1133.53	003650	-1060.58	-1071.38	072.96
1133.24	003600	-1060.28	-1071.08	072.96
1132.94	003750	-1059.99	-1070.79	072.96
1132.63	003695	-1059.67	-1070.47	072.96
1132.31	003660	-1059.35	-1070.15	072.96
1131.99	003595	-1059.03	-1069.83	072.96
1131.67	003620	-1058.71	-1069.51	072.96
1131.32	003560	-1058.36	-1069.16	072.96
1130.94	003720	-1057.98	-1068.78	072.96
1130.57	003560	-1057.62	-1068.42	072.96
1130.26	003580	-1057.30	-1068.10	072.96
1129.96	003440	-1057.01	-1067.81	072.96
1129.69	003700	-1056.73	-1067.53	072.96
1129.39	003310	-1056.43	-1067.23	072.96
1129.06	003590	-1056.10	-1066.90	072.96
1128.71	003415	-1055.75	-1066.55	072.96
1128.37	003675	-1055.42	-1066.22	072.96
1128.05	003495	-1055.10	-1065.90	072.96
1127.74	003350	-1054.78	-1065.58	072.96
1127.43	003595	-1054.47	-1065.27	072.96
1127.09	003295	-1054.13	-1064.93	072.96
1126.74	003495	-1053.79	-1064.59	072.96
1126.41	003690	-1053.46	-1064.26	072.96
1126.09	003620	-1053.14	-1063.94	072.96
1125.80	003475	-1052.85	-1063.65	072.96
1125.51	003480	-1052.55	-1063.35	072.96
1125.20	003500	-1052.25	-1063.05	072.96
1124.88	003545	-1051.93	-1062.73	072.96
1124.56	003760	-1051.60	-1062.40	072.96
1124.24	003465	-1051.28	-1062.08	072.96
1123.92	003675	-1050.96	-1061.76	072.96
1123.60	003750	-1050.64	-1061.44	072.96
1123.22	003170	-1050.27	-1061.07	072.96
1122.86	003425	-1049.91	-1060.71	072.96
1122.53	003290	-1049.57	-1060.37	072.96
1122.22	003495	-1049.26	-1060.06	072.96
1121.93	003395	-1048.97	-1059.77	072.96
1121.64	003275	-1048.69	-1059.49	072.96
1121.33	003510	-1048.38	-1059.18	072.96
1121.00	003480	-1048.05	-1058.85	072.96
1120.67	003550	-1047.71	-1058.51	072.96
1120.35	003215	-1047.39	-1058.19	072.96
1120.03	003440	-1047.07	-1057.87	072.96
1119.72	003545	-1046.76	-1057.56	072.96
1119.39	003575	-1046.43	-1057.23	072.96
1119.05	003625	-1046.09	-1056.89	072.96
1118.71	003485	-1045.76	-1056.56	072.96
1118.40	003530	-1045.45	-1056.25	072.96
1118.10	003285	-1045.15	-1055.95	072.96
1117.79	003180	-1044.84	-1055.64	072.96
1117.50	003450	-1044.55	-1055.35	072.96
1117.20	003375	-1044.24	-1055.04	072.96
1116.88	003375	-1043.93	-1054.73	072.96
1116.57	003315	-1043.61	-1054.41	072.96
1116.24	003595	-1043.28	-1054.08	072.96
1115.92	003455	-1042.97	-1053.77	072.96
1115.58	003330	-1042.62	-1053.42	072.96
1115.21	003505	-1042.25	-1053.05	072.96
1114.85	003315	-1041.90	-1052.70	072.96
1114.53	003285	-1041.58	-1052.38	072.96
1114.24	003615	-1041.28	-1052.08	072.96
1113.95	003355	-1041.00	-1051.80	072.96
1113.65	003370	-1040.69	-1051.49	072.96
1113.32	003260	-1040.37	-1051.17	072.96
1112.98	003145	-1040.03	-1050.83	072.96
1112.65	003565	-1039.69	-1050.49	072.96
1112.33	003580	-1039.37	-1050.17	072.96
1112.03	003320	-1039.07	-1049.87	072.96
1111.71	003055	-1038.76	-1049.56	072.96
1111.37	003340	-1038.41	-1049.21	072.96
1111.02	003360	-1038.07	-1048.87	072.96
1110.69	003520	-1037.74	-1048.54	072.96
1110.38	003370	-1037.43	-1048.23	072.96
1110.08	003440	-1037.12	-1047.92	072.96
1109.78	003440	-1036.83	-1047.63	072.96
1109.48	003365	-1036.53	-1047.33	072.96
1109.17	003565	-1036.21	-1047.01	072.96
1108.85	003325	-1035.89	-1046.69	072.96
1108.52	003425	-1035.57	-1046.37	072.96
1108.21	003310	-1035.25	-1046.05	072.96
1107.88	003185	-1034.93	-1045.73	072.96
1107.51	003305	-1034.56	-1045.36	072.96
1107.16	003375	-1034.20	-1045.00	072.96
1106.82	003460	-1033.87	-1044.67	072.96
1106.52	003245	-1033.57	-1044.37	072.96
1106.23	003530	-1033.27	-1044.07	072.96
1105.94	003285	-1032.98	-1043.78	072.96
1105.63	003545	-1032.67	-1043.47	072.96
1105.30	003280	-1032.34	-1043.14	072.96
1104.97	003615	-1032.01	-1042.81	072.96
1104.64	003455	-1031.69	-1042.49	072.96
1104.33	003330	-1031.37	-1042.17	072.96
1104.02	003260	-1031.07	-1041.87	072.96
1103.70	003225	-1030.74	-1041.54	072.96
1103.36	003225	-1030.40	-1041.20	072.96
1103.03	003360	-1030.07	-1040.87	072.96
1102.72	003360	-1029.76	-1040.56	072.96
1102.41	003350	-1029.45	-1040.25	072.96
1102.11	003165	-1029.15	-1039.95	072.96
1101.82	003185	-1028.86	-1039.66	072.96
1101.51	003215	-1028.56	-1039.36	072.96
1101.20	003125	-1028.25	-1039.05	072.96
1100.88	003375	-1027.92	-1038.72	072.96
1100.55	003175	-1027.60	-1038.40	072.96
1100.23	003130	-1027.28	-1038.08	072.96
1099.88	003115	-1026.92	-1037.72	072.96
1099.51	003200	-1026.55	-1037.35	072.96
1099.15	003390	-1026.20	-1037.00	072.96
1098.84	003185	-1025.88	-1036.68	072.96
1098.54	003235	-1025.59	-1036.39	072.96
1098.26	003405	-1025.31	-1036.11	072.96
1097.96	003505	-1025.01	-1035.81	072.96
1097.62	003175	-1024.66	-1035.46	072.96
1097.28	003255	-1024.32	-1035.12	072.96
1096.95	003020	-1023.99	-1034.79	072.96
1096.63	003195	-1023.68	-1034.48	072.96
1096.33	003355	-1023.37	-1034.17	072.96
1096.01	003190	-1023.06	-1033.86	072.96
1095.66	003100	-1022.71	-1033.51	072.96
1095.32	003000	-1022.36	-1033.16	072.96
1094.99	003055	-1022.04	-1032.84	072.96
1094.68	003115	-1021.73	-1032.53	072.96
1094.39	003165	-1021.43	-1032.23	072.96
1094.10	003100	-1021.14	-1031.94	072.96
1093.79	002930	-1020.83	-1031.63	072.96
1093.47	003280	-1020.51	-1031.31	072.96
1093.15	003085	-1020.19	-1030.99	072.96
1092.82	003170	-1019.86	-1030.66	072.96
1092.50	003335	-1019.55	-1030.35	072.96
1092.17	003070	-1019.22	-1030.02	072.96
1091.81	003025	-1018.85	-1029.65	072.96
1091.45	003200	-1018.49	-1029.29	072.96
1091.12	003070	-1018.17	-1028.97	072.96
1090.82	003145	-1017.86	-1028.66	072.96
1090.52	003135	-1017.57	-1028.37	072.96
1090.23	003090	-1017.28	-1028.08	072.96
1089.92	003340	-1016.96	-1027.76	072.96
1089.58	003070	-1016.63	-1027.43	072.96
1089.26	002945	-1016.31	-1027.11	072.96
1088.94	003085	-1015.98	-1026.78	072.96
1088.63	003035	-1015.67	-1026.47	072.96
1088.32	003125	-1015.37	-1026.17	072.96
1088.00	003330	-1015.05	-1025.85	072.96
1087.66	003125	-1014.71	-1025.51	072.96
1087.34	003270	-1014.38	-1025.18	072.96
1087.02	003240	-1014.06	-1024.86	072.96
1086.71	003120	-1013.76	-1024.56	072.96
1086.42	003065	-1013.46	-1024.26	072.96
1086.13	003105	-1013.18	-1023.98	072.96
1085.83	003180	-1012.88	-1023.68	072.96
1085.51	002920	-1012.56	-1023.36	072.96
1085.19	003180	-1012.23	-1023.03	072.96
1084.86	003070	-1011.91	-1022.71	072.96
1084.55	003240	-1011.59	-1022.39	072.96
1084.20	002935	-1011.24	-1022.04	072.96
1083.83	003335	-1010.88	-1021.68	072.96
1083.49	002910	-1010.53	-1021.33	072.96
1083.18	003175	-1010.22	-1021.02	072.96
1082.88	003140	-1009.92	-1020.72	072.96
1082.59	003285	-1009.63	-1020.43	072.96
1082.29	002940	-1009.33	-1020.13	072.96
1081.96	003020	-1009.00	-1019.80	072.96
1081.62	003095	-1008.66	-1019.46	072.96
1081.29	003050	-1008.34	-1019.14	072.96
1080.97	002880	-1008.02	-1018.82	072.96
1080.67	003175	-1007.71	-1018.51	072.96
1080.34	003020	-1007.39	-1018.19	072.96
1080.00	003145	-1007.04	-1017.84	072.96
1079.66	003005	-1006.70	-1017.50	072.96
1079.34	003200	-1006.39	-1017.19	072.96
1079.04	003130	-1006.08	-1016.88	072.96
1078.74	003120	-1005.78	-1016.58	072.96
1078.44	003080	-1005.49	-1016.29	072.96
1078.14	002835	-1005.19	-1015.99	072.96
1077.83	003190	-1004.87	-1015.67	072.96
1077.51	003040	-1004.55	-1015.35	072.96
1077.18	002840	-1004.23	-1015.03	072.96
1076.87	003040	-1003.91	-1014.71	072.96
1076.53	003255	-1003.57	-1014.37	072.96
1076.17	002795	-1003.21	-1014.01	072.96
1075.81	002960	-1002.86	-1013.66	072.96
1075.49	002880	-1002.54	-1013.34	072.96
1075.20	003005	-1002.24	-1013.04	072.96
1074.90	002990	-1001.94	-1012.74	072.96
1074.61	003080	-1001.65	-1012.45	072.96
1074.30	002855	-1001.34	-1012.14	072.96
1073.97	002850	-1001.02	-1011.82	072.96
1073.64	002910	-1000.68	-1011.48	072.96
1073.32	002940	-1000.36	-1011.16	072.96
1073.00	002910	-1000.04	-1010.84	072.96
1072.69	003090	-0999.73	-1010.53	072.96
1072.36	002990	-0999.41	-1010.21	072.96
1072.03	003000	-0999.07	-1009.87	072.96
1071.70	002875	-0998.75	-1009.55	072.96
1071.39	002930	-0998.43	-1009.23	072.96
1071.08	002705	-0998.13	-1008.93	072.96
1070.79	002890	-0997.83	-1008.63	072.96
1070.50	002880	-0997.54	-1008.34	072.96
1070.20	002705	-0997.24	-1008.04	072.96
1069.88	002980	-0996.93	-1007.73	072.96
1069.56	002800	-0996.60	-1007.40	072.96
1069.23	002855	-0996.28	-1007.08	072.96
1068.91	002765	-0995.95	-1006.75	072.96
1068.52	002665	-0995.56	-1006.36	072.96
1068.12	003095	-0995.17	-1005.97	072.96
1067.76	002895	-0994.81	-1005.61	072.96
1067.46	002860	-0994.50	-1005.30	072.96
1067.18	002885	-0994.22	-1005.02	072.96
1066.91	002650	-0993.95	-1004.75	072.96
1066.60	002985	-0993.64	-1004.44	072.96
1066.25	002595	-0993.30	-1004.10	072.96
1065.91	002885	-0992.95	-1003.75	072.96
1065.57	002910	-0992.62	-1003.42	072.96
1065.26	002590	-0992.31	-1003.11	072.96
1064.96	002865	-0992.01	-1002.81	072.96
1064.64	002840	-0991.68	-1002.48	072.96
1064.28	003145	-0991.32	-1002.12	072.96
1063.94	002835	-0990.99	-1001.79	072.96
1063.62	002850	-0990.66	-1001.46	072.96
1063.31	002915	-0990.35	-1001.15	072.96
1063.01	002955	-0990.06	-1000.86	072.96
1062.70	002925	-0989.75	-1000.55	072.96
1062.40	002815	-0989.44	-1000.24	072.96
1062.08	002700	-0989.12	-0999.92	072.96
1061.75	002815	-0988.80	-0999.60	072.96
1061.43	002770	-0988.48	-0999.28	072.96
1061.12	002930	-0988.16	-0998.96	072.96
1060.79	002705	-0987.83	-0998.63	072.96
1060.41	002820	-0987.45	-0998.25	072.96
1060.05	002720	-0987.09	-0997.89	072.96
1059.73	002765	-0986.77	-0997.57	072.96
1059.42	002830	-0986.47	-0997.27	072.96
1059.13	002690	-0986.18	-0996.98	072.96
1058.83	002765	-0985.88	-0996.68	072.96
1058.52	002735	-0985.56	-0996.36	072.96
1058.18	002660	-0985.23	-0996.03	072.96
1057.86	002590	-0984.90	-0995.70	072.96
1057.53	002770	-0984.57	-0995.37	072.96
1057.22	002760	-0984.26	-0995.06	072.96
1056.91	002475	-0983.95	-0994.75	072.96
1056.56	002865	-0983.61	-0994.41	072.96
1056.22	002615	-0983.26	-0994.06	072.96
1055.89	002690	-0982.94	-0993.74	072.96
1055.59	002785	-0982.63	-0993.43	072.96
1055.28	002985	-0982.33	-0993.13	072.96
1054.99	002740	-0982.03	-0992.83	072.96
1054.69	002735	-0981.74	-0992.54	072.96
1054.38	002670	-0981.42	-0992.22	072.96
1054.06	002890	-0981.10	-0991.90	072.96
1053.74	002700	-0980.78	-0991.58	072.96
1053.41	002600	-0980.46	-0991.26	072.96
1053.10	002525	-0980.14	-0990.94	072.96
1052.74	002515	-0979.78	-0990.58	072.96
1052.36	002695	-0979.40	-0990.20	072.96
1052.02	002655	-0979.06	-0989.86	072.96
1051.72	002780	-0978.76	-0989.56	072.96
1051.43	002530	-0978.47	-0989.27	072.96
1051.15	002465	-0978.19	-0988.99	072.96
1050.84	002455	-0977.88	-0988.68	072.96
1050.49	002850	-0977.54	-0988.34	072.96
1050.16	002615	-0977.20	-0988.00	072.96
1049.82	002570	-0976.87	-0987.67	072.96
1049.51	002860	-0976.55	-0987.35	072.96
1049.20	002660	-0976.24	-0987.04	072.96
1048.87	002825	-0975.91	-0986.71	072.96
1048.52	002560	-0975.57	-0986.37	072.96
1048.19	002610	-0975.23	-0986.03	072.96
1047.87	002660	-0974.91	-0985.71	072.96
1047.56	002585	-0974.61	-0985.41	072.96
1047.27	002695	-0974.31	-0985.11	072.96
1046.97	002545	-0974.02	-0984.82	072.96
1046.66	002510	-0973.71	-0984.51	072.96
1046.35	002650	-0973.39	-0984.19	072.96
1046.03	002710	-0973.07	-0983.87	072.96
1045.70	002730	-0972.74	-0983.54	072.96
1045.39	002810	-0972.43	-0983.23	072.96
1045.04	002535	-0972.09	-0982.89	072.96
1044.67	002715	-0971.72	-0982.52	072.96
1044.32	002940	-0971.36	-0982.16	072.96
1044.00	002725	-0971.04	-0981.84	072.96
1043.70	002555	-0970.74	-0981.54	072.96
1043.41	002600	-0970.45	-0981.25	072.96
1043.12	002690	-0970.17	-0980.97	072.96
1042.81	002685	-0969.86	-0980.66	072.96
1042.47	002645	-0969.52	-0980.32	072.96
1042.14	002550	-0969.19	-0979.99	072.96
1041.82	002725	-0968.87	-0979.67	072.96
1041.50	002705	-0968.55	-0979.35	072.96
1041.20	002575	-0968.24	-0979.04	072.96
1040.86	002405	-0967.90	-0978.70	072.96
1040.52	002735	-0967.57	-0978.37	072.96
1040.20	002695	-0967.25	-0978.05	072.96
1039.89	002460	-0966.93	-0977.73	072.96
1039.58	002515	-0966.63	-0977.43	072.96
1039.30	002670	-0966.34	-0977.14	072.96
1039.01	002605	-0966.05	-0976.85	072.96
1038.70	002465	-0965.74	-0976.54	072.96
1038.38	002685	-0965.42	-0976.22	072.96
1038.06	002660	-0965.10	-0975.90	072.96
1037.73	002425	-0964.78	-0975.58	072.96
1037.40	002665	-0964.45	-0975.25	072.96
1037.03	002505	-0964.07	-0974.87	072.96
1036.66	002600	-0963.70	-0974.50	072.96
1036.32	002555	-0963.36	-0974.16	072.96
1036.02	002515	-0963.06	-0973.86	072.96
1035.73	002740	-0962.77	-0973.57	072.96
1035.44	002540	-0962.49	-0973.29	072.96
1035.12	002630	-0962.17	-0972.97	072.96
1034.79	002630	-0961.83	-0972.63	072.96
1034.45	002625	-0961.49	-0972.29	072.96
1034.12	002630	-0961.16	-0971.96	072.96
1033.81	002635	-0960.85	-0971.65	072.96
1033.50	002535	-0960.54	-0971.34	072.96
1033.16	002600	-0960.20	-0971.00	072.96
1032.81	002570	-0959.85	-0970.65	072.96
1032.47	002330	-0959.51	-0970.31	072.96
1032.15	002700	-0959.19	-0969.99	072.96
1031.85	002620	-0958.89	-0969.69	072.96
1031.56	002570	-0958.60	-0969.40	072.96
1031.26	002570	-0958.30	-0969.10	072.96
1030.95	002610	-0958.00	-0968.80	072.96
1030.63	002435	-0957.67	-0968.47	072.96
1030.30	002620	-0957.34	-0968.14	072.96
1029.97	002500	-0957.02	-0967.82	072.96
1029.66	002610	-0956.70	-0967.50	072.96
1029.31	002340	-0956.35	-0967.15	072.96
1028.94	002520	-0955.98	-0966.78	072.96
1028.58	002630	-0955.63	-0966.43	072.96
1028.26	002465	-0955.31	-0966.11	072.96
1027.97	002465	-0955.02	-0965.82	072.96
1027.69	002770	-0954.73	-0965.53	072.96
1027.40	002420	-0954.44	-0965.24	072.96
1027.07	002550	-0954.11	-0964.91	072.96
1026.73	002575	-0953.78	-0964.58	072.96
1026.40	002610	-0953.45	-0964.25	072.96
1026.09	002480	-0953.13	-0963.93	072.96
1025.78	002360	-0952.83	-0963.63	072.96
1025.47	002505	-0952.51	-0963.31	072.96
1025.12	002615	-0952.17	-0962.97	072.96
1024.78	002345	-0951.83	-0962.63	072.96
1024.46	002575	-0951.51	-0962.31	072.96
1024.15	002515	-0951.19	-0961.99	072.96
1023.85	002455	-0950.89	-0961.69	072.96
1023.56	002505	-0950.60	-0961.40	072.96
1023.26	002675	-0950.31	-0961.11	072.96
1022.96	002745	-0950.00	-0960.80	072.96
1022.64	002380	-0949.69	-0960.49	072.96
1022.31	002385	-0949.36	-0960.16	072.96
1021.99	002520	-0949.04	-0959.84	072.96
1021.66	002405	-0948.70	-0959.50	072.96
1021.28	002485	-0948.33	-0959.13	072.96
1020.92	002480	-0947.96	-0958.76	072.96
1020.59	002810	-0947.64	-0958.44	072.96
1020.29	002445	-0947.33	-0958.13	072.96
1020.00	002660	-0947.04	-0957.84	072.96
1019.71	002605	-0946.75	-0957.55	072.96
1019.39	002455	-0946.43	-0957.23	072.96
1019.05	002470	-0946.10	-0956.90	072.96
1018.73	002595	-0945.77	-0956.57	072.96
1018.40	002410	-0945.44	-0956.24	072.96
1018.09	002535	-0945.14	-0955.94	072.96
1017.79	002370	-0944.83	-0955.63	072.96
1017.45	002615	-0944.50	-0955.30	072.96
1017.10	002285	-0944.15	-0954.95	072.96
1016.77	002535	-0943.82	-0954.62	072.96
1016.46	002200	-0943.50	-0954.30	072.96
1016.15	002645	-0943.20	-0954.00	072.96
1015.86	002245	-0942.90	-0953.70	072.96
1015.56	002340	-0942.61	-0953.41	072.96
1015.25	002505	-0942.30	-0953.10	072.96
1014.92	002505	-0941.97	-0952.77	072.96
1014.60	002350	-0941.65	-0952.45	072.96
1014.28	002530	-0941.32	-0952.12	072.96
1013.96	002360	-0941.00	-0951.80	072.96
1013.62	002405	-0940.66	-0951.46	072.96
1013.25	002475	-0940.29	-0951.09	072.96
1012.91	002450	-0939.95	-0950.75	072.96
1012.59	002320	-0939.63	-0950.43	072.96
1012.29	002315	-0939.34	-0950.14	072.96
1012.01	002560	-0939.05	-0949.85	072.96
1011.71	002400	-0938.76	-0949.56	072.96
1011.40	002425	-0938.44	-0949.24	072.96
1011.06	002200	-0938.11	-0948.91	072.96
1010.73	002510	-0937.78	-0948.58	072.96
1010.41	002260	-0937.46	-0948.26	072.96
1010.09	002410	-0937.14	-0947.94	072.96
1009.78	002300	-0936.83	-0947.63	072.96
1009.45	002585	-0936.50	-0947.30	072.96
1009.12	002455	-0936.16	-0946.96	072.96
1008.80	002450	-0935.84	-0946.64	072.96
1008.49	002460	-0935.53	-0946.33	072.96
1008.19	002345	-0935.23	-0946.03	072.96
1007.89	002465	-0934.93	-0945.73	072.96
1007.60	002285	-0934.64	-0945.44	072.96
1007.29	002515	-0934.33	-0945.13	072.96
1006.98	002290	-0934.02	-0944.82	072.96
1006.65	002480	-0933.69	-0944.49	072.96
1006.33	002460	-0933.37	-0944.17	072.96
1005.98	002310	-0933.03	-0943.83	072.96
1005.60	002445	-0932.65	-0943.45	072.96
1005.23	002280	-0932.27	-0943.07	072.96
1004.91	002385	-0931.95	-0942.75	072.96
1004.61	002380	-0931.66	-0942.46	072.96
1004.33	002375	-0931.37	-0942.17	072.96
1004.04	002450	-0931.09	-0941.89	072.96
1003.72	002450	-0930.76	-0941.56	072.96
1003.36	002405	-0930.41	-0941.21	072.96
1003.03	002385	-0930.07	-0940.87	072.96
1002.71	002410	-0929.75	-0940.55	072.96
1002.39	002385	-0929.44	-0940.24	072.96
1002.09	002405	-0929.14	-0939.94	072.96
1001.75	002415	-0928.79	-0939.59	072.96
1001.40	002480	-0928.44	-0939.24	072.96
1001.06	002415	-0928.10	-0938.90	072.96
1000.74	002270	-0927.78	-0938.58	072.96
1000.44	002340	-0927.48	-0938.28	072.96
1000.15	002370	-0927.20	-0938.00	072.96
0999.85	002355	-0926.89	-0937.69	072.96
0999.53	002265	-0926.58	-0937.38	072.96
0999.20	002290	-0926.25	-0937.05	072.96
0998.88	002535	-0925.93	-0936.73	072.96
0998.56	002240	-0925.61	-0936.41	072.96
0998.25	002385	-0925.29	-0936.09	072.96
0997.90	002220	-0924.94	-0935.74	072.96
0997.53	002320	-0924.57	-0935.37	072.96
0997.18	002330	-0924.22	-0935.02	072.96
0996.86	002180	-0923.91	-0934.71	072.96
0996.57	002350	-0923.61	-0934.41	072.96
0996.28	002375	-0923.33	-0934.13	072.96
0995.98	002335	-0923.03	-0933.83	072.96
0995.66	002420	-0922.70	-0933.50	072.96
0995.32	002320	-0922.37	-0933.17	072.96
0995.00	002250	-0922.04	-0932.84	072.96
0994.67	002265	-0921.71	-0932.51	072.96
0994.36	002370	-0921.41	-0932.21	072.96
0994.04	002370	-0921.08	-0931.88	072.96
0993.70	002400	-0920.75	-0931.55	072.96
0993.37	002415	-0920.42	-0931.22	072.96
0993.04	002440	-0920.09	-0930.89	072.96
0992.73	002400	-0919.78	-0930.58	072.96
0992.43	002210	-0919.48	-0930.28	072.96
0992.14	002360	-0919.18	-0929.98	072.96
0991.84	002280	-0918.88	-0929.68	072.96
0991.52	002330	-0918.57	-0929.37	072.96
0991.21	002420	-0918.26	-0929.06	072.96
0990.89	002435	-0917.93	-0928.73	072.96
0990.57	002540	-0917.61	-0928.41	072.96
0990.22	002360	-0917.27	-0928.07	072.96
0989.85	002165	-0916.90	-0927.70	072.96
0989.50	002280	-0916.55	-0927.35	072.96
0989.24	002380	-0916.28	-0927.08	072.96
0988.94	002385	-0915.98	-0926.78	072.96
0988.65	002370	-0915.69	-0926.49	072.96
0988.36	002595	-0915.40	-0926.20	072.96
0988.04	002415	-0915.08	-0925.88	072.96
0987.70	002630	-0914.74	-0925.54	072.96
0987.37	002545	-0914.42	-0925.22	072.96
0987.05	002605	-0914.10	-0924.90	072.96
0986.74	002485	-0913.78	-0924.58	072.96
0986.43	002535	-0913.47	-0924.27	072.96
0986.08	002310	-0913.13	-0923.93	072.96
0985.73	002425	-0912.78	-0923.58	072.96
0985.40	002595	-0912.44	-0923.24	072.96
0985.08	002430	-0912.13	-0922.93	072.96
0984.79	002550	-0911.83	-0922.63	072.96
0984.49	002335	-0911.53	-0922.33	072.96
0984.19	002415	-0911.23	-0922.03	072.96
0983.88	002315	-0910.93	-0921.73	072.96
0983.56	-000005	-0910.60	-0921.40	072.96
0983.24	002310	-0910.28	-0921.08	072.96
0982.92	002275	-0909.97	-0920.77	072.96
0982.60	002640	-0909.65	-0920.45	072.96
0982.24	002405	-0909.29	-0920.09	072.96
0981.88	002520	-0908.92	-0919.72	072.96
0981.53	002600	-0908.58	-0919.38	072.96
0981.22	002190	-0908.27	-0919.07	072.96
0980.93	002130	-0907.97	-0918.77	072.96
0980.64	002415	-0907.69	-0918.49	072.96
0980.34	002255	-0907.38	-0918.18	072.96
0980.01	002270	-0907.05	-0917.85	072.96
0979.68	002380	-0906.73	-0917.53	072.96
0979.35	002395	-0906.40	-0917.20	072.96
0979.04	002455	-0906.08	-0916.88	072.96
0978.73	002490	-0905.77	-0916.57	072.96
0978.41	002455	-0905.45	-0916.25	072.96
0978.07	002380	-0905.12	-0915.92	072.96
0977.74	002495	-0904.78	-0915.58	072.96
0977.42	002390	-0904.46	-0915.26	072.96
0977.10	002420	-0904.15	-0914.95	072.96
0976.80	002430	-0903.85	-0914.65	072.96
0976.51	002350	-0903.55	-0914.35	072.96
0976.22	002495	-0903.27	-0914.07	072.96
0975.92	002485	-0902.97	-0913.77	072.96
0975.60	002575	-0902.64	-0913.44	072.96
0975.27	002630	-0902.31	-0913.11	072.96
0974.95	002550	-0901.99	-0912.79	072.96
0974.61	002465	-0901.65	-0912.45	072.96
0974.23	002495	-0901.28	-0912.08	072.96
0973.87	002550	-0900.91	-0911.71	072.96
0973.55	002670	-0900.59	-0911.39	072.96
0973.25	002745	-0900.29	-0911.09	072.96
0972.97	002675	-0900.01	-0910.81	072.96
0972.67	002905	-0899.71	-0910.51	072.96
0972.34	002465	-0899.38	-0910.18	072.96
0971.99	002565	-0899.04	-0909.84	072.96
0971.66	002880	-0898.71	-0909.51	072.96
0971.35	002615	-0898.39	-0909.19	072.96
0971.04	002675	-0898.08	-0908.88	072.96
0970.73	002510	-0897.77	-0908.57	072.96
0970.38	002570	-0897.42	-0908.22	072.96
0970.04	002655	-0897.08	-0907.88	072.96
0969.70	002700	-0896.75	-0907.55	072.96
0969.39	002485	-0896.43	-0907.23	072.96
0969.09	002460	-0896.13	-0906.93	072.96
0968.80	002540	-0895.84	-0906.64	072.96
0968.49	002430	-0895.54	-0906.34	072.96
0968.18	002560	-0895.23	-0906.03	072.96
0967.87	002540	-0894.91	-0905.71	072.96
0967.54	002455	-0894.58	-0905.38	072.96
0967.22	002440	-0894.26	-0905.06	072.96
0966.89	002470	-0893.94	-0904.74	072.96
0966.53	002700	-0893.58	-0904.38	072.96
0966.16	002300	-0893.21	-0904.01	072.96
0965.82	002280	-0892.87	-0903.67	072.96
0965.52	002335	-0892.57	-0903.37	072.96
0965.23	002410	-0892.28	-0903.08	072.96
0964.95	002125	-0891.99	-0902.79	072.96
0964.64	002460	-0891.69	-0902.49	072.96
0964.31	002225	-0891.35	-0902.15	072.96
0963.97	002465	-0891.02	-0901.82	072.96
0963.65	002370	-0890.69	-0901.49	072.96
0963.33	002430	-0890.37	-0901.17	072.96
0963.02	002320	-0890.06	-0900.86	072.96
0962.70	002355	-0889.75	-0900.55	072.96
0962.37	002370	-0889.41	-0900.21	072.96
0962.03	002495	-0889.08	-0899.88	072.96
0961.71	002350	-0888.76	-0899.56	072.96
0961.40	002125	-0888.45	-0899.25	072.96
0961.10	002565	-0888.15	-0898.95	072.96
0960.81	002285	-0887.86	-0898.66	072.96
0960.51	002325	-0887.55	-0898.35	072.96
0960.19	002275	-0887.24	-0898.04	072.96
0959.87	002455	-0886.92	-0897.72	072.96
0959.55	002270	-0886.59	-0897.39	072.96
0959.24	002405	-0886.28	-0897.08	072.96
0958.89	002440	-0885.93	-0896.73	072.96
0958.52	002360	-0885.57	-0896.37	072.96
0958.17	002240	-0885.22	-0896.02	072.96
0957.85	002320	-0884.89	-0895.69	072.96
0957.55	002425	-0884.59	-0895.39	072.96
0957.27	002200	-0884.31	-0895.11	072.96
0956.97	002415	-0884.01	-0894.81	072.96
0956.64	002240	-0883.68	-0894.48	072.96
0956.31	002440	-0883.35	-0894.15	072.96
0955.97	002380	-0883.02	-0893.82	072.96
0955.66	002475	-0882.70	-0893.50	072.96
0955.34	002150	-0882.38	-0893.18	072.96
0955.03	002185	-0882.07	-0892.87	072.96
0954.69	002430	-0881.74	-0892.54	072.96
0954.35	002125	-0881.39	-0892.19	072.96
0954.02	002390	-0881.07	-0891.87	072.96
0953.71	002435	-0880.75	-0891.55	072.96
0953.41	002490	-0880.46	-0891.26	072.96
0953.12	002295	-0880.16	-0890.96	072.96
0952.82	002450	-0879.87	-0890.67	072.96
0952.51	002365	-0879.55	-0890.35	072.96
0952.19	002290	-0879.23	-0890.03	072.96
0951.86	002485	-0878.91	-0889.71	072.96
0951.54	002390	-0878.59	-0889.39	072.96
0951.22	002335	-0878.26	-0889.06	072.96
0950.85	002390	-0877.90	-0888.70	072.96
0950.49	002160	-0877.53	-0888.33	072.96
0950.16	002235	-0877.20	-0888.00	072.96
0949.85	002350	-0876.90	-0887.70	072.96
0949.56	002445	-0876.60	-0887.40	072.96
0949.27	002395	-0876.32	-0887.12	072.96
0948.97	002470	-0876.01	-0886.81	072.96
0948.65	002300	-0875.69	-0886.49	072.96
0948.31	002545	-0875.36	-0886.16	072.96
0947.99	002415	-0875.04	-0885.84	072.96
0947.67	002300	-0874.72	-0885.52	072.96
0947.37	002310	-0874.41	-0885.21	072.96
0947.04	002385	-0874.09	-0884.89	072.96
0946.70	002360	-0873.75	-0884.55	072.96
0946.38	002425	-0873.42	-0884.22	072.96
0946.06	002135	-0873.11	-0883.91	072.96
0945.75	002315	-0872.79	-0883.59	072.96
0945.45	002515	-0872.50	-0883.30	072.96
0945.16	002285	-0872.20	-0883.00	072.96
0944.87	002390	-0871.91	-0882.71	072.96
0944.56	002245	-0871.60	-0882.40	072.96
0944.24	002290	-0871.29	-0882.09	072.96
0943.92	002315	-0870.96	-0881.76	072.96
0943.59	002370	-0870.64	-0881.44	072.96
0943.23	002355	-0870.28	-0881.08	072.96
0942.83	002120	-0869.88	-0880.68	072.96
0942.47	002305	-0869.51	-0880.31	072.96
0942.15	002245	-0869.20	-0880.00	072.96
0941.87	002255	-0868.91	-0879.71	072.96
0941.59	002390	-0868.64	-0879.44	072.96
0941.29	002185	-0868.33	-0879.13	072.96
0940.96	002435	-0868.00	-0878.80	072.96
0940.61	002470	-0867.66	-0878.46	072.96
0940.28	002255	-0867.33	-0878.13	072.96
0939.96	002225	-0867.01	-0877.81	072.96
0939.67	002325	-0866.71	-0877.51	072.96
0939.34	002255	-0866.39	-0877.19	072.96
0938.99	002285	-0866.04	-0876.84	072.96
0938.64	002245	-0865.69	-0876.49	072.96
0938.32	002380	-0865.37	-0876.17	072.96
0938.01	002255	-0865.05	-0875.85	072.96
0937.71	002290	-0864.76	-0875.56	072.96
0937.42	002195	-0864.46	-0875.26	072.96
0937.11	002000	-0864.15	-0874.95	072.96
0936.78	002305	-0863.83	-0874.63	072.96
0936.46	002300	-0863.51	-0874.31	072.96
0936.15	002225	-0863.19	-0873.99	072.96
0935.83	002350	-0862.87	-0873.67	072.96
0935.50	002250	-0862.55	-0873.35	072.96
0935.13	002285	-0862.17	-0872.97	072.96
0934.76	002370	-0861.81	-0872.61	072.96
0934.43	002325	-0861.47	-0872.27	072.96
0934.13	002195	-0861.17	-0871.97	072.96
0933.84	002340	-0860.88	-0871.68	072.96
0933.55	002345	-0860.59	-0871.39	072.96
0933.24	002185	-0860.28	-0871.08	072.96
0932.91	002250	-0859.95	-0870.75	072.96
0932.58	002200	-0859.62	-0870.42	072.96
0932.25	002245	-0859.30	-0870.10	072.96
0931.94	002280	-0858.99	-0869.79	072.96
0931.63	002250	-0858.68	-0869.48	072.96
0931.30	002220	-0858.34	-0869.14	072.96
0930.95	002105	-0857.99	-0868.79	072.96
0930.62	002175	-0857.67	-0868.47	072.96
0930.30	002265	-0857.35	-0868.15	072.96
0930.00	002255	-0857.04	-0867.84	072.96
0929.70	002225	-0856.74	-0867.54	072.96
0929.40	002300	-0856.45	-0867.25	072.96
0929.10	002440	-0856.14	-0866.94	072.96
0928.78	002235	-0855.83	-0866.63	072.96
0928.46	002270	-0855.50	-0866.30	072.96
0928.13	002150	-0855.18	-0865.98	072.96
0927.82	002415	-0854.87	-0865.67	072.96
0927.47	002120	-0854.51	-0865.31	072.96
0927.10	002305	-0854.14	-0864.94	072.96
0926.75	002225	-0853.79	-0864.59	072.96
0926.43	002305	-0853.48	-0864.28	072.96
0926.14	002150	-0853.18	-0863.98	072.96
0925.85	002140	-0852.90	-0863.70	072.96
0925.55	002140	-0852.59	-0863.39	072.96
0925.21	002220	-0852.26	-0863.06	072.96
0924.88	002195	-0851.92	-0862.72	072.96
0924.55	002075	-0851.59	-0862.39	072.96
0924.23	002150	-0851.27	-0862.07	072.96
0923.93	002245	-0850.97	-0861.77	072.96
0923.61	002110	-0850.65	-0861.45	072.96
0923.26	002240	-0850.30	-0861.10	072.96
0922.91	002175	-0849.96	-0860.76	072.96
0922.59	002180	-0849.64	-0860.44	072.96
0922.29	002090	-0849.34	-0860.14	072.96
0921.98	002195	-0849.03	-0859.83	072.96
0921.69	002245	-0848.74	-0859.54	072.96
0921.38	002160	-0848.43	-0859.23	072.96
0921.06	002190	-0848.11	-0858.91	072.96
0920.75	002130	-0847.79	-0858.59	072.96
0920.42	002200	-0847.47	-0858.27	072.96
0920.11	002125	-0847.16	-0857.96	072.96
0919.78	002315	-0846.82	-0857.62	072.96
0919.40	002205	-0846.45	-0857.25	072.96
0919.04	002235	-0846.08	-0856.88	072.96
0918.72	002190	-0845.76	-0856.56	072.96
0918.41	002085	-0845.46	-0856.26	072.96
0918.12	002180	-0845.17	-0855.97	072.96
0917.84	002255	-0844.88	-0855.68	072.96
0917.53	002140	-0844.57	-0855.37	072.96
0917.20	002010	-0844.24	-0855.04	072.96
0916.87	002180	-0843.92	-0854.72	072.96
0916.54	002120	-0843.59	-0854.39	072.96
0916.23	001965	-0843.28	-0854.08	072.96
0915.92	002050	-0842.97	-0853.77	072.96
0915.59	002090	-0842.64	-0853.44	072.96
0915.25	002095	-0842.29	-0853.09	072.96
0914.92	002090	-0841.96	-0852.76	072.96
0914.60	002215	-0841.65	-0852.45	072.96
0914.30	002020	-0841.34	-0852.14	072.96
0914.00	002170	-0841.05	-0851.85	072.96
0913.71	002265	-0840.76	-0851.56	072.96
0913.41	002055	-0840.45	-0851.25	072.96
0913.10	002135	-0840.14	-0850.94	072.96
0912.77	002090	-0839.81	-0850.61	072.96
0912.45	002310	-0839.49	-0850.29	072.96
0912.13	002250	-0839.17	-0849.97	072.96
0911.76	002295	-0838.81	-0849.61	072.96
0911.39	002055	-0838.43	-0849.23	072.96
0911.04	002190	-0838.08	-0848.88	072.96
0910.73	002220	-0837.78	-0848.58	072.96
0910.45	002045	-0837.49	-0848.29	072.96
0910.16	002140	-0837.21	-0848.01	072.96
0909.85	002225	-0836.90	-0847.70	072.96
0909.52	002330	-0836.56	-0847.36	072.96
0909.18	002080	-0836.22	-0847.02	072.96
0908.84	002185	-0835.89	-0846.69	072.96
0908.53	002055	-0835.57	-0846.37	072.96
0908.23	002005	-0835.27	-0846.07	072.96
0907.91	002030	-0834.96	-0845.76	072.96
0907.55	001950	-0834.60	-0845.40	072.96
0907.21	002080	-0834.25	-0845.05	072.96
0906.88	002180	-0833.93	-0844.73	072.96
0906.57	002140	-0833.62	-0844.42	072.96
0906.28	002045	-0833.32	-0844.12	072.96
0905.98	002195	-0833.03	-0843.83	072.96
0905.67	002185	-0832.72	-0843.52	072.96
0905.35	001955	-0832.39	-0843.19	072.96
0905.03	002045	-0832.07	-0842.87	072.96
0904.70	002300	-0831.75	-0842.55	072.96
0904.39	001995	-0831.44	-0842.24	072.96
0904.07	002225	-0831.11	-0841.91	072.96
0903.70	002080	-0830.74	-0841.54	072.96
0903.33	002075	-0830.37	-0841.17	072.96
0903.00	002220	-0830.04	-0840.84	072.96
0902.70	002075	-0829.74	-0840.54	072.96
0902.41	002005	-0829.45	-0840.25	072.96
0902.11	002025	-0829.16	-0839.96	072.96
0901.80	002040	-0828.85	-0839.65	072.96
0901.48	002125	-0828.52	-0839.32	072.96
0901.14	002100	-0828.18	-0838.98	072.96
0900.82	002050	-0827.86	-0838.66	072.96
0900.50	002140	-0827.55	-0838.35	072.96
0900.20	002050	-0827.24	-0838.04	072.96
0899.86	002175	-0826.91	-0837.71	072.96
0899.52	002165	-0826.57	-0837.37	072.96
0899.19	002100	-0826.24	-0837.04	072.96
0898.88	002110	-0825.92	-0836.72	072.96
0898.57	002075	-0825.61	-0836.41	072.96
0898.28	002115	-0825.33	-0836.13	072.96
0897.99	001980	-0825.04	-0835.84	072.96
0897.69	002120	-0824.74	-0835.54	072.96
0897.38	002030	-0824.42	-0835.22	072.96
0897.05	002130	-0824.10	-0834.90	072.96
0896.73	002085	-0823.77	-0834.57	072.96
0896.40	002010	-0823.45	-0834.25	072.96
0896.05	002075	-0823.09	-0833.89	072.96
0895.68	002025	-0822.73	-0833.53	072.96
0895.34	001970	-0822.38	-0833.18	072.96
0895.03	002060	-0822.07	-0832.87	072.96
0894.74	001980	-0821.78	-0832.58	072.96
0894.45	001935	-0821.50	-0832.30	072.96
0894.14	001970	-0821.19	-0831.99	072.96
0893.81	002065	-0820.85	-0831.65	072.96
0893.47	002155	-0820.52	-0831.32	072.96
0893.15	002005	-0820.19	-0830.99	072.96
0892.83	002120	-0819.87	-0830.67	072.96
0892.52	002035	-0819.56	-0830.36	072.96
0892.18	002090	-0819.23	-0830.03	072.96
0891.84	002235	-0818.88	-0829.68	072.96
0891.50	001985	-0818.55	-0829.35	072.96
0891.18	002130	-0818.23	-0829.03	072.96
0890.88	002090	-0817.92	-0828.72	072.96
0890.58	002075	-0817.62	-0828.42	072.96
0890.29	002250	-0817.33	-0828.13	072.96
0889.99	002355	-0817.03	-0827.83	072.96
0889.67	002200	-0816.71	-0827.51	072.96
0889.35	002065	-0816.39	-0827.19	072.96
0889.02	001975	-0816.07	-0826.87	072.96
0888.71	002185	-0815.75	-0826.55	072.96
0888.38	002230	-0815.42	-0826.22	072.96
0888.01	001985	-0815.06	-0825.86	072.96
0887.66	002065	-0814.70	-0825.50	072.96
0887.33	002220	-0814.38	-0825.18	072.96
0887.03	002095	-0814.08	-0824.88	072.96
0886.74	002180	-0813.78	-0824.58	072.96
0886.44	002140	-0813.49	-0824.29	072.96
0886.13	002075	-0813.18	-0823.98	072.96
0885.80	002095	-0812.84	-0823.64	072.96
0885.48	001995	-0812.52	-0823.32	072.96
0885.16	001995	-0812.20	-0823.00	072.96
0884.84	002015	-0811.89	-0822.69	072.96
0884.54	002110	-0811.58	-0822.38	072.96
0884.20	002040	-0811.25	-0822.05	072.96
0883.87	001985	-0810.91	-0821.71	072.96
0883.54	002095	-0810.59	-0821.39	072.96
0883.23	001935	-0810.27	-0821.07	072.96
0882.92	002160	-0809.96	-0820.76	072.96
0882.63	002075	-0809.67	-0820.47	072.96
0882.34	001855	-0809.38	-0820.18	072.96
0882.04	002060	-0809.08	-0819.88	072.96
0881.73	002195	-0808.77	-0819.57	072.96
0881.40	002005	-0808.44	-0819.24	072.96
0881.07	002020	-0808.12	-0818.92	072.96
0880.75	002225	-0807.79	-0818.59	072.96
0880.37	002085	-0807.41	-0818.21	072.96
0880.00	002015	-0807.04	-0817.84	072.96
0879.65	002145	-0806.70	-0817.50	072.96
0879.35	002375	-0806.40	-0817.20	072.96
0879.06	002165	-0806.11	-0816.91	072.96
0878.78	002065	-0805.82	-0816.62	072.96
0878.46	002020	-0805.50	-0816.30	072.96
0878.11	001940	-0805.15	-0815.95	072.96
0877.78	002320	-0804.82	-0815.62	072.96
0877.45	002040	-0804.50	-0815.30	072.96
0877.14	002230	-0804.19	-0814.99	072.96
0876.84	002200	-0803.89	-0814.69	072.96
0876.50	002235	-0803.55	-0814.35	072.96
0876.16	001990	-0803.20	-0814.00	072.96
0875.81	002170	-0802.85	-0813.65	072.96
0875.49	002270	-0802.53	-0813.33	072.96
0875.18	002150	-0802.22	-0813.02	072.96
0874.89	002000	-0801.93	-0812.73	072.96
0874.59	002075	-0801.64	-0812.44	072.96
0874.28	002040	-0801.33	-0812.13	072.96
0873.96	002485	-0801.00	-0811.80	072.96
0873.64	002130	-0800.68	-0811.48	072.96
0873.31	002150	-0800.36	-0811.16	072.96
0873.00	002085	-0800.05	-0810.85	072.96
0872.66	002070	-0799.71	-0810.51	072.96
0872.29	002265	-0799.33	-0810.13	072.96
0871.92	002100	-0798.97	-0809.77	072.96
0871.60	002260	-0798.65	-0809.45	072.96
0871.31	002040	-0798.36	-0809.16	072.96
0871.02	002125	-0798.07	-0808.87	072.96
0870.73	002230	-0797.78	-0808.58	072.96
0870.41	002045	-0797.45	-0808.25	072.96
0870.08	002125	-0797.12	-0807.92	072.96
0869.75	001795	-0796.79	-0807.59	072.96
0869.42	002170	-0796.46	-0807.26	072.96
0869.11	001915	-0796.16	-0806.96	072.96
0868.80	002150	-0795.84	-0806.64	072.96
0868.46	002215	-0795.50	-0806.30	072.96
0868.11	002110	-0795.16	-0805.96	072.96
0867.79	001920	-0794.83	-0805.63	072.96
0867.48	002075	-0794.52	-0805.32	072.96
0867.18	001945	-0794.22	-0805.02	072.96
0866.88	002055	-0793.92	-0804.72	072.96
0866.58	002035	-0793.63	-0804.43	072.96
0866.27	002035	-0793.32	-0804.12	072.96
0865.95	002055	-0793.00	-0803.80	072.96
0865.63	002055	-0792.68	-0803.48	072.96
0865.31	001930	-0792.35	-0803.15	072.96
0864.99	002005	-0792.04	-0802.84	072.96
0864.62	001970	-0791.67	-0802.47	072.96
0864.26	001945	-0791.30	-0802.10	072.96
0863.92	001950	-0790.97	-0801.77	072.96
0863.62	002145	-0790.66	-0801.46	072.96
0863.33	002095	-0790.37	-0801.17	072.96
0863.04	002160	-0790.08	-0800.88	072.96
0862.72	002135	-0789.76	-0800.56	072.96
0862.39	002105	-0789.43	-0800.23	072.96
0862.05	002010	-0789.09	-0799.89	072.96
0861.72	002005	-0788.77	-0799.57	072.96
0861.41	002115	-0788.45	-0799.25	072.96
0861.10	001945	-0788.15	-0798.95	072.96
0860.77	001810	-0787.82	-0798.62	072.96
0860.43	002110	-0787.47	-0798.27	072.96
0860.09	001865	-0787.14	-0797.94	072.96
0859.77	002110	-0786.82	-0797.62	072.96
0859.47	002065	-0786.51	-0797.31	072.96
0859.18	002020	-0786.22	-0797.02	072.96
0858.88	001950	-0785.92	-0796.72	072.96
0858.56	002085	-0785.61	-0796.41	072.96
0858.25	001950	-0785.30	-0796.10	072.96
0857.93	002030	-0784.98	-0795.78	072.96
0857.61	002025	-0784.65	-0795.45	072.96
0857.29	001815	-0784.33	-0795.13	072.96
0856.94	001865	-0783.99	-0794.79	072.96
0856.58	002005	-0783.62	-0794.42	072.96
0856.23	002045	-0783.27	-0794.07	072.96
0855.91	001855	-0782.95	-0793.75	072.96
0855.61	001885	-0782.66	-0793.46	072.96
0855.33	002080	-0782.37	-0793.17	072.96
0855.03	001890	-0782.07	-0792.87	072.96
0854.71	001860	-0781.76	-0792.56	072.96
0854.39	001970	-0781.43	-0792.23	072.96
0854.05	001975	-0781.10	-0791.90	072.96
0853.73	001975	-0780.78	-0791.58	072.96
0853.42	002065	-0780.47	-0791.27	072.96
0853.10	002230	-0780.14	-0790.94	072.96
0852.76	001860	-0779.81	-0790.61	072.96
0852.43	002120	-0779.47	-0790.27	072.96
0852.11	001940	-0779.15	-0789.95	072.96
0851.79	001835	-0778.84	-0789.64	072.96
0851.49	001915	-0778.54	-0789.34	072.96
0851.21	002070	-0778.25	-0789.05	072.96
0850.91	002100	-0777.95	-0788.75	072.96
0850.60	002065	-0777.64	-0788.44	072.96
0850.28	002190	-0777.32	-0788.12	072.96
0849.96	002290	-0777.00	-0787.80	072.96
0849.64	001875	-0776.68	-0787.48	072.96
0849.30	002000	-0776.35	-0787.15	072.96
0848.93	001930	-0775.98	-0786.78	072.96
0848.56	001875	-0775.61	-0786.41	072.96
0848.24	001895	-0775.28	-0786.08	072.96
0847.94	002195	-0774.98	-0785.78	072.96
0847.65	001935	-0774.70	-0785.50	072.96
0847.37	002140	-0774.41	-0785.21	072.96
0847.04	002010	-0774.09	-0784.89	072.96
0846.71	001875	-0773.75	-0784.55	072.96
0846.37	001910	-0773.41	-0784.21	072.96
0846.04	001935	-0773.09	-0783.89	072.96
0845.74	001970	-0772.78	-0783.58	072.96
0845.42	001945	-0772.47	-0783.27	072.96
0845.09	001865	-0772.14	-0782.94	072.96
0844.74	001915	-0771.79	-0782.59	072.96
0844.40	002095	-0771.45	-0782.25	072.96
0844.09	001975	-0771.14	-0781.94	072.96
0843.79	001945	-0770.83	-0781.63	072.96
0843.49	001945	-0770.53	-0781.33	072.96
0843.19	002090	-0770.24	-0781.04	072.96
0842.88	001900	-0769.93	-0780.73	072.96
0842.56	001955	-0769.60	-0780.40	072.96
0842.23	001935	-0769.28	-0780.08	072.96
0841.91	001970	-0768.95	-0779.75	072.96
0841.59	001965	-0768.64	-0779.44	072.96
0841.25	001845	-0768.29	-0779.09	072.96
0840.89	001855	-0767.93	-0778.73	072.96
0840.53	001985	-0767.58	-0778.38	072.96
0840.22	002040	-0767.26	-0778.06	072.96
0839.92	002065	-0766.97	-0777.77	072.96
0839.63	002115	-0766.68	-0777.48	072.96
0839.34	001845	-0766.38	-0777.18	072.96
0839.02	001925	-0766.06	-0776.86	072.96
0838.69	001865	-0765.73	-0776.53	072.96
0838.36	002005	-0765.40	-0776.20	072.96
0838.03	001885	-0765.08	-0775.88	072.96
0837.72	001875	-0764.77	-0775.57	072.96
0837.40	001800	-0764.45	-0775.25	072.96
0837.07	001990	-0764.11	-0774.91	072.96
0836.74	002090	-0763.78	-0774.58	072.96
0836.41	001805	-0763.46	-0774.26	072.96
0836.10	001905	-0763.15	-0773.95	072.96
0835.80	001910	-0762.84	-0773.64	072.96
0835.50	001890	-0762.55	-0773.35	072.96
0835.21	001985	-0762.25	-0773.05	072.96
0834.90	001950	-0761.94	-0772.74	072.96
0834.59	002020	-0761.63	-0772.43	072.96
0834.27	001920	-0761.31	-0772.11	072.96
0833.94	002030	-0760.99	-0771.79	072.96
0833.61	001815	-0760.66	-0771.46	072.96
0833.25	001850	-0760.29	-0771.09	072.96
0832.88	002030	-0759.93	-0770.73	072.96
0832.56	001945	-0759.60	-0770.40	072.96
0832.25	001845	-0759.29	-0770.09	072.96
0831.96	001990	-0759.00	-0769.80	072.96
0831.67	001910	-0758.72	-0769.52	072.96
0831.35	001840	-0758.40	-0769.20	072.96
0831.02	001845	-0758.06	-0768.86	072.96
0830.69	002030	-0757.73	-0768.53	072.96
0830.35	001940	-0757.40	-0768.20	072.96
0830.04	001865	-0757.09	-0767.89	072.96
0829.74	001690	-0756.78	-0767.58	072.96
0829.40	001835	-0756.44	-0767.24	072.96
0829.06	001990	-0756.10	-0766.90	072.96
0828.73	001935	-0755.77	-0766.57	072.96
0828.41	001915	-0755.46	-0766.26	072.96
0828.11	001645	-0755.16	-0765.96	072.96
0827.82	001960	-0754.87	-0765.67	072.96
0827.52	001755	-0754.57	-0765.37	072.96
0827.21	001965	-0754.25	-0765.05	072.96
0826.89	001785	-0753.94	-0764.74	072.96
0826.57	001890	-0753.62	-0764.42	072.96
0826.25	001880	-0753.29	-0764.09	072.96
0825.93	001935	-0752.98	-0763.78	072.96
0825.58	001815	-0752.62	-0763.42	072.96
0825.21	001905	-0752.26	-0763.06	072.96
0824.88	001760	-0751.92	-0762.72	072.96
0824.56	001885	-0751.61	-0762.41	072.96
0824.27	002110	-0751.32	-0762.12	072.96
0823.98	001950	-0751.02	-0761.82	072.96
0823.68	001945	-0750.72	-0761.52	072.96
0823.36	001975	-0750.41	-0761.21	072.96
0823.04	001815	-0750.08	-0760.88	072.96
0822.71	001910	-0749.76	-0760.56	072.96
0822.39	001920	-0749.44	-0760.24	072.96
0822.07	002030	-0749.12	-0759.92	072.96
0821.76	001850	-0748.80	-0759.60	072.96
0821.42	001775	-0748.47	-0759.27	072.96
0821.10	001615	-0748.14	-0758.94	072.96
0820.77	001815	-0747.82	-0758.62	072.96
0820.46	001810	-0747.51	-0758.31	072.96
0820.16	001900	-0747.21	-0758.01	072.96
0819.87	001885	-0746.91	-0757.71	072.96
0819.58	001920	-0746.63	-0757.43	072.96
0819.28	001935	-0746.32	-0757.12	072.96
0818.96	001835	-0746.00	-0756.80	072.96
0818.63	001950	-0745.67	-0756.47	072.96
0818.31	001820	-0745.35	-0756.15	072.96
0817.96	001895	-0745.00	-0755.80	072.96
0817.57	001830	-0744.62	-0755.42	072.96
0817.19	001885	-0744.23	-0755.03	072.96
0816.85	001905	-0743.90	-0754.70	072.96
0816.56	001990	-0743.61	-0754.41	072.96
0816.28	001845	-0743.33	-0754.13	072.96
0816.00	001845	-0743.04	-0753.84	072.96
0815.67	001890	-0742.71	-0753.51	072.96
0815.32	001665	-0742.37	-0753.17	072.96
0814.99	001910	-0742.03	-0752.83	072.96
0814.66	002075	-0741.71	-0752.51	072.96
0814.35	001810	-0741.40	-0752.20	072.96
0814.05	001785	-0741.09	-0751.89	072.96
0813.70	001775	-0740.75	-0751.55	072.96
0813.35	001835	-0740.39	-0751.19	072.96
0813.01	001925	-0740.06	-0750.86	072.96
0812.70	002045	-0739.74	-0750.54	072.96
0812.39	001690	-0739.44	-0750.24	072.96
0812.11	001700	-0739.15	-0749.95	072.96
0811.80	001785	-0738.85	-0749.65	072.96
0811.49	-000003	-0738.53	-0749.33	072.96
0811.16	001915	-0738.21	-0749.01	072.96
0810.84	001770	-0737.88	-0748.68	072.96
0810.52	001770	-0737.56	-0748.36	072.96
0810.19	001850	-0737.24	-0748.04	072.96
0809.83	001925	-0736.87	-0747.67	072.96
0809.46	002030	-0736.50	-0747.30	072.96
0809.11	001890	-0736.16	-0746.96	072.96
0808.81	001705	-0735.85	-0746.65	072.96
0808.51	001735	-0735.56	-0746.36	072.96
0808.23	001900	-0735.28	-0746.08	072.96
0807.92	001965	-0734.96	-0745.76	072.96
0807.59	001775	-0734.63	-0745.43	072.96
0807.26	001735	-0734.30	-0745.10	072.96
0806.93	001790	-0733.97	-0744.77	072.96
0806.61	002000	-0733.66	-0744.46	072.96
0806.31	001815	-0733.35	-0744.15	072.96
0805.98	002000	-0733.02	-0743.82	072.96
0805.64	001720	-0732.68	-0743.48	072.96
0805.30	001705	-0732.35	-0743.15	072.96
0804.98	001925	-0732.03	-0742.83	072.96
0804.68	001905	-0731.72	-0742.52	072.96
0804.37	001695	-0731.42	-0742.22	072.96
0804.08	001765	-0731.13	-0741.93	072.96
0803.78	001945	-0730.83	-0741.63	072.96
0803.47	001895	-0730.51	-0741.31	072.96
0803.14	001825	-0730.19	-0740.99	072.96
0802.82	001780	-0729.87	-0740.67	072.96
0802.50	001905	-0729.54	-0740.34	072.96
0802.16	001875	-0729.21	-0740.01	072.96
0801.79	001690	-0728.83	-0739.63	072.96
0801.43	001940	-0728.47	-0739.27	072.96
0801.11	001870	-0728.15	-0738.95	072.96
0800.81	001740	-0727.86	-0738.66	072.96
0800.53	001870	-0727.57	-0738.37	072.96
0800.23	001845	-0727.28	-0738.08	072.96
0799.91	001780	-0726.95	-0737.75	072.96
0799.57	002090	-0726.61	-0737.41	072.96
0799.23	001775	-0726.28	-0737.08	072.96
0798.91	001770	-0725.96	-0736.76	072.96
0798.60	001915	-0725.65	-0736.45	072.96
0798.30	001585	-0725.34	-0736.14	072.96
0797.96	001665	-0725.00	-0735.80	072.96
0797.61	001690	-0724.65	-0735.45	072.96
0797.28	001765	-0724.32	-0735.12	072.96
0796.96	001850	-0724.01	-0734.81	072.96
0796.66	001775	-0723.71	-0734.51	072.96
0796.37	001785	-0723.41	-0734.21	072.96
0796.07	001770	-0723.12	-0733.92	072.96
0795.75	001830	-0722.80	-0733.60	072.96
0795.44	001760	-0722.48	-0733.28	072.96
0795.11	001815	-0722.15	-0732.95	072.96
0794.79	001905	-0721.83	-0732.63	072.96
0794.47	001865	-0721.51	-0732.31	072.96
0794.11	001800	-0721.15	-0731.95	072.96
0793.74	001715	-0720.79	-0731.59	072.96
0793.41	001875	-0720.45	-0731.25	072.96
0793.10	001900	-0720.14	-0730.94	072.96
0792.81	001890	-0719.85	-0730.65	072.96
0792.51	001710	-0719.56	-0730.36	072.96
0792.21	001665	-0719.26	-0730.06	072.96
0791.89	001835	-0718.93	-0729.73	072.96
0791.57	001770	-0718.61	-0729.41	072.96
0791.29	001955	-0718.34	-0729.14	072.96
0790.98	001620	-0718.02	-0728.82	072.96
0790.68	001755	-0717.72	-0728.52	072.96
0790.36	001785	-0717.40	-0728.20	072.96
0790.02	001885	-0717.07	-0727.87	072.96
0789.69	001745	-0716.73	-0727.53	072.96
0789.36	001835	-0716.41	-0727.21	072.96
0789.05	001745	-0716.09	-0726.89	072.96
0788.74	001860	-0715.79	-0726.59	072.96
0788.46	001820	-0715.50	-0726.30	072.96
0788.16	001790	-0715.21	-0726.01	072.96
0787.86	001710	-0714.90	-0725.70	072.96
0787.54	001765	-0714.58	-0725.38	072.96
0787.21	001685	-0714.26	-0725.06	072.96
0786.88	001850	-0713.93	-0724.73	072.96
0786.54	001665	-0713.58	-0724.38	072.96
0786.16	001715	-0713.21	-0724.01	072.96
0785.80	001955	-0712.85	-0723.65	072.96
0785.48	001770	-0712.53	-0723.33	072.96
0785.19	001705	-0712.23	-0723.03	072.96
0784.91	001835	-0711.95	-0722.75	072.96
0784.61	001940	-0711.65	-0722.45	072.96
0784.28	001635	-0711.32	-0722.12	072.96
0783.93	001840	-0710.98	-0721.78	072.96
0783.60	001750	-0710.64	-0721.44	072.96
0783.28	001780	-0710.32	-0721.12	072.96
0782.97	001635	-0710.02	-0720.82	072.96
0782.66	001825	-0709.70	-0720.50	072.96
0782.31	001705	-0709.36	-0720.16	072.96
0781.96	001740	-0709.01	-0719.81	072.96
0781.64	001815	-0708.68	-0719.48	072.96
0781.33	001850	-0708.37	-0719.17	072.96
0781.03	001950	-0708.08	-0718.88	072.96
0780.74	001790	-0707.79	-0718.59	072.96
0780.43	001765	-0707.48	-0718.28	072.96
0780.12	001875	-0707.16	-0717.96	072.96
0779.79	001710	-0706.84	-0717.64	072.96
0779.47	001995	-0706.52	-0717.32	072.96
0779.15	001885	-0706.19	-0716.99	072.96
0778.82	001910	-0705.87	-0716.67	072.96
0778.46	001665	-0705.50	-0716.30	072.96
0778.09	001765	-0705.13	-0715.93	072.96
0777.76	001795	-0704.80	-0715.60	072.96
0777.45	001630	-0704.49	-0715.29	072.96
0777.16	001800	-0704.21	-0715.01	072.96
0776.88	001850	-0703.92	-0714.72	072.96
0776.56	001730	-0703.61	-0714.41	072.96
0776.23	001885	-0703.28	-0714.08	072.96
0775.90	001745	-0702.94	-0713.74	072.96
0775.58	001760	-0702.62	-0713.42	072.96
0775.25	001860	-0702.30	-0713.10	072.96
0774.95	001800	-0701.99	-0712.79	072.96
0774.62	001810	-0701.67	-0712.47	072.96
0774.28	001860	-0701.33	-0712.13	072.96
0773.95	001865	-0700.99	-0711.79	072.96
0773.63	001890	-0700.67	-0711.47	072.96
0773.33	001805	-0700.37	-0711.17	072.96
0773.03	001555	-0700.08	-0710.88	072.96
0772.73	001680	-0699.78	-0710.58	072.96
0772.43	001770	-0699.47	-0710.27	072.96
0772.11	001720	-0699.16	-0709.96	072.96
0771.79	001640	-0698.83	-0709.63	072.96
0771.47	001735	-0698.51	-0709.31	072.96
0771.15	001820	-0698.20	-0709.00	072.96
0770.81	001840	-0697.85	-0708.65	072.96
0770.44	001860	-0697.48	-0708.28	072.96
0770.09	001780	-0697.13	-0707.93	072.96
0769.77	001700	-0696.81	-0707.61	072.96
0769.47	001730	-0696.51	-0707.31	072.96
0769.18	001765	-0696.23	-0707.03	072.96
0768.88	001815	-0695.93	-0706.73	072.96
0768.56	001865	-0695.60	-0706.40	072.96
0768.22	001910	-0695.26	-0706.06	072.96
0767.89	001885	-0694.94	-0705.74	072.96
0767.57	001745	-0694.62	-0705.42	072.96
0767.27	001850	-0694.31	-0705.11	072.96
0766.95	001830	-0694.00	-0704.80	072.96
0766.61	001765	-0693.65	-0704.45	072.96
0766.27	001725	-0693.31	-0704.11	072.96
0765.94	001940	-0692.98	-0703.78	072.96
0765.62	001815	-0692.67	-0703.47	072.96
0765.33	001640	-0692.37	-0703.17	072.96
0765.03	001590	-0692.08	-0702.88	072.96
0764.74	001835	-0691.78	-0702.58	072.96
0764.42	001945	-0691.47	-0702.27	072.96
0764.10	001695	-0691.14	-0701.94	072.96
0763.77	001805	-0690.82	-0701.62	072.96
0763.46	001645	-0690.50	-0701.30	072.96
0763.14	001875	-0690.18	-0700.98	072.96
0762.77	001775	-0689.82	-0700.62	072.96
0762.41	001795	-0689.46	-0700.26	072.96
0762.08	001875	-0689.12	-0699.92	072.96
0761.78	001885	-0688.82	-0699.62	072.96
0761.49	001660	-0688.53	-0699.33	072.96
0761.20	001945	-0688.25	-0699.05	072.96
0760.89	001920	-0687.94	-0698.74	072.96
0760.57	001610	-0687.61	-0698.41	072.96
0760.24	001925	-0687.28	-0698.08	072.96
0759.91	001680	-0686.95	-0697.75	072.96
0759.59	001700	-0686.63	-0697.43	072.96
0759.28	001825	-0686.32	-0697.12	072.96
0758.96	001620	-0686.00	-0696.80	072.96
0758.62	001800	-0685.67	-0696.47	072.96
0758.30	001795	-0685.34	-0696.14	072.96
0757.98	001885	-0685.02	-0695.82	072.96
0757.67	001840	-0684.71	-0695.51	072.96
0757.37	001855	-0684.41	-0695.21	072.96
0757.08	001735	-0684.12	-0694.92	072.96
0756.78	001715	-0683.82	-0694.62	072.96
0756.46	001600	-0683.50	-0694.30	072.96
0756.15	001625	-0683.19	-0693.99	072.96
0755.82	001820	-0682.86	-0693.66	072.96
0755.50	001640	-0682.54	-0693.34	072.96
0755.14	001885	-0682.18	-0692.98	072.96
0754.76	001665	-0681.80	-0692.60	072.96
0754.40	001640	-0681.45	-0692.25	072.96
0754.08	001655	-0681.13	-0691.93	072.96
0753.79	001860	-0680.83	-0691.63	072.96
0753.51	001770	-0680.55	-0691.35	072.96
0753.21	001915	-0680.25	-0691.05	072.96
0752.87	001680	-0679.92	-0690.72	072.96
0752.53	001735	-0679.57	-0690.37	072.96
0752.20	001615	-0679.24	-0690.04	072.96
0751.88	001985	-0678.92	-0689.72	072.96
0751.58	001700	-0678.63	-0689.43	072.96
0751.26	001685	-0678.30	-0689.10	072.96
0750.91	001830	-0677.95	-0688.75	072.96
0750.56	001660	-0677.60	-0688.40	072.96
0750.24	001655	-0677.28	-0688.08	072.96
0749.93	001720	-0676.97	-0687.77	072.96
0749.63	001690	-0676.68	-0687.48	072.96
0749.34	001845	-0676.39	-0687.19	072.96
0749.03	001620	-0676.08	-0686.88	072.96
0748.71	001670	-0675.76	-0686.56	072.96
0748.39	001880	-0675.43	-0686.23	072.96
0748.06	001715	-0675.11	-0685.91	072.96
0747.74	001665	-0674.79	-0685.59	072.96
0747.42	001575	-0674.46	-0685.26	072.96
0747.05	001790	-0674.09	-0684.89	072.96
0746.68	001695	-0673.73	-0684.53	072.96
0746.36	001840	-0673.40	-0684.20	072.96
0746.05	001640	-0673.10	-0683.90	072.96
0745.76	001705	-0672.80	-0683.60	072.96
0745.48	001600	-0672.52	-0683.32	072.96
0745.17	001570	-0672.21	-0683.01	072.96
0744.83	001710	-0671.88	-0682.68	072.96
0744.50	001625	-0671.54	-0682.34	072.96
0744.17	001785	-0671.21	-0682.01	072.96
0743.86	001840	-0670.90	-0681.70	072.96
0743.55	001740	-0670.60	-0681.40	072.96
0743.22	001690	-0670.26	-0681.06	072.96
0742.87	001670	-0669.92	-0680.72	072.96
0742.55	001725	-0669.59	-0680.39	072.96
0742.23	001645	-0669.28	-0680.08	072.96
0741.93	001855	-0668.97	-0679.77	072.96
0741.64	001580	-0668.68	-0679.48	072.96
0741.34	001600	-0668.38	-0679.18	072.96
0741.03	001680	-0668.08	-0678.88	072.96
0740.72	001735	-0667.76	-0678.56	072.96
0740.40	001630	-0667.44	-0678.24	072.96
0740.07	001615	-0667.12	-0677.92	072.96
0739.75	001635	-0666.79	-0677.59	072.96
0739.39	001610	-0666.44	-0677.24	072.96
0739.02	001660	-0666.07	-0676.87	072.96
0738.68	001590	-0665.72	-0676.52	072.96
0738.37	001675	-0665.41	-0676.21	072.96
0738.07	001775	-0665.12	-0675.92	072.96
0737.79	001765	-0664.83	-0675.63	072.96
0737.48	001780	-0664.52	-0675.32	072.96
0737.15	001740	-0664.20	-0675.00	072.96
0736.82	001605	-0663.86	-0674.66	072.96
0736.48	001530	-0663.53	-0674.33	072.96
0736.16	001805	-0663.21	-0674.01	072.96
0735.86	001855	-0662.90	-0673.70	072.96
0735.54	001620	-0662.58	-0673.38	072.96
0735.20	001625	-0662.24	-0673.04	072.96
0734.85	001705	-0661.90	-0672.70	072.96
0734.53	001690	-0661.58	-0672.38	072.96
0734.22	001625	-0661.27	-0672.07	072.96
0733.92	001570	-0660.97	-0671.77	072.96
0733.63	001680	-0660.67	-0671.47	072.96
0733.32	001635	-0660.36	-0671.16	072.96
0733.00	001750	-0660.05	-0670.85	072.96
0732.68	001715	-0659.73	-0670.53	072.96
0732.35	001685	-0659.40	-0670.20	072.96
0732.03	001615	-0659.07	-0669.87	072.96
0731.70	001545	-0658.75	-0669.55	072.96
0731.34	001760	-0658.38	-0669.18	072.96
0730.98	001455	-0658.02	-0668.82	072.96
0730.65	001585	-0657.70	-0668.50	072.96
0730.35	001730	-0657.40	-0668.20	072.96
0730.06	001580	-0657.10	-0667.90	072.96
0729.76	001715	-0656.81	-0667.61	072.96
0729.45	001550	-0656.50	-0667.30	072.96
0729.13	001595	-0656.18	-0666.98	072.96
0728.79	001755	-0655.84	-0666.64	072.96
0728.47	001560	-0655.52	-0666.32	072.96
0728.16	001555	-0655.20	-0666.00	072.96
0727.85	001545	-0654.90	-0665.70	072.96
0727.52	001655	-0654.57	-0665.37	072.96
0727.19	001765	-0654.23	-0665.03	072.96
0726.86	001770	-0653.90	-0664.70	072.96
0726.54	001535	-0653.59	-0664.39	072.96
0726.24	001720	-0653.28	-0664.08	072.96
0725.95	001760	-0652.99	-0663.79	072.96
0725.65	001555	-0652.69	-0663.49	072.96
0725.35	001625	-0652.39	-0663.19	072.96
0725.03	001805	-0652.07	-0662.87	072.96
0724.71	001750	-0651.76	-0662.56	072.96
0724.39	001715	-0651.43	-0662.23	072.96
0724.06	001740	-0651.11	-0661.91	072.96
0723.70	001725	-0650.74	-0661.54	072.96
0723.33	001515	-0650.37	-0661.17	072.96
0722.98	001805	-0650.03	-0660.83	072.96
0722.67	001610	-0649.72	-0660.52	072.96
0722.39	001750	-0649.43	-0660.23	072.96
0722.10	001690	-0649.14	-0659.94	072.96
0721.78	001665	-0648.83	-0659.63	072.96
0721.45	001805	-0648.49	-0659.29	072.96
0721.11	001685	-0648.16	-0658.96	072.96
0720.79	001470	-0647.83	-0658.63	072.96
0720.47	001595	-0647.52	-0658.32	072.96
0720.17	001645	-0647.21	-0658.01	072.96
0719.84	001665	-0646.89	-0657.69	072.96
0719.49	001690	-0646.53	-0657.33	072.96
0719.15	001495	-0646.19	-0656.99	072.96
0718.82	001700	-0645.87	-0656.67	072.96
0718.53	001720	-0645.57	-0656.37	072.96
0718.23	001645	-0645.27	-0656.07	072.96
0717.94	001680	-0644.98	-0655.78	072.96
0717.62	001670	-0644.66	-0655.46	072.96
0717.29	001910	-0644.34	-0655.14	072.96
0716.97	001605	-0644.02	-0654.82	072.96
0716.65	001640	-0643.69	-0654.49	072.96
0716.33	001700	-0643.37	-0654.17	072.96
0716.00	001705	-0643.05	-0653.85	072.96
0715.64	001580	-0642.68	-0653.48	072.96
0715.28	001575	-0642.32	-0653.12	072.96
0714.95	001685	-0642.00	-0652.80	072.96
0714.64	001600	-0641.69	-0652.49	072.96
0714.35	001735	-0641.40	-0652.20	072.96
0714.06	001725	-0641.11	-0651.91	072.96
0713.75	001645	-0640.80	-0651.60	072.96
0713.43	001715	-0640.47	-0651.27	072.96
0713.10	001525	-0640.14	-0650.94	072.96
0712.77	001625	-0639.81	-0650.61	072.96
0712.46	001775	-0639.50	-0650.30	072.96
0712.15	001485	-0639.19	-0649.99	072.96
0711.82	001585	-0638.86	-0649.66	072.96
0711.48	001655	-0638.52	-0649.32	072.96
0711.15	001725	-0638.20	-0649.00	072.96
0710.84	001585	-0637.88	-0648.68	072.96
0710.54	001670	-0637.58	-0648.38	072.96
0710.24	001660	-0637.29	-0648.09	072.96
0709.95	001650	-0637.00	-0647.80	072.96
0709.65	001640	-0636.69	-0647.49	072.96
0709.33	001690	-0636.37	-0647.17	072.96
0709.00	001640	-0636.05	-0646.85	072.96
0708.67	001560	-0635.72	-0646.52	072.96
0708.35	001640	-0635.40	-0646.20	072.96
0707.98	001840	-0635.03	-0645.83	072.96
0707.62	001585	-0634.66	-0645.46	072.96
0707.29	001675	-0634.33	-0645.13	072.96
0706.98	001825	-0634.03	-0644.83	072.96
0706.69	001685	-0633.73	-0644.53	072.96
0706.40	001635	-0633.44	-0644.24	072.96
0706.08	001510	-0633.13	-0643.93	072.96
0705.74	001635	-0632.79	-0643.59	072.96
0705.41	001760	-0632.45	-0643.25	072.96
0705.09	001605	-0632.13	-0642.93	072.96
0704.77	001730	-0631.81	-0642.61	072.96
0704.46	001645	-0631.51	-0642.31	072.96
0704.14	001520	-0631.19	-0641.99	072.96
0703.80	001665	-0630.85	-0641.65	072.96
0703.46	001640	-0630.51	-0641.31	072.96
0703.15	001695	-0630.19	-0640.99	072.96
0702.84	001785	-0629.88	-0640.68	072.96
0702.54	001555	-0629.58	-0640.38	072.96
0702.25	001685	-0629.29	-0640.09	072.96
0701.94	001515	-0628.99	-0639.79	072.96
0701.62	001495	-0628.66	-0639.46	072.96
0701.30	001610	-0628.34	-0639.14	072.96
0700.98	001650	-0628.03	-0638.83	072.96
0700.66	001680	-0627.71	-0638.51	072.96
0700.33	001640	-0627.38	-0638.18	072.96
0699.96	001725	-0627.01	-0637.81	072.96
0699.61	001740	-0626.66	-0637.46	072.96
0699.29	001580	-0626.34	-0637.14	072.96
0698.99	001485	-0626.04	-0636.84	072.96
0698.70	001615	-0625.74	-0636.54	072.96
0698.41	001520	-0625.45	-0636.25	072.96
0698.09	001640	-0625.14	-0635.94	072.96
0697.77	001620	-0624.81	-0635.61	072.96
0697.44	001585	-0624.49	-0635.29	072.96
0697.12	001575	-0624.16	-0634.96	072.96
0696.80	001675	-0623.85	-0634.65	072.96
0696.50	001585	-0623.54	-0634.34	072.96
0696.17	001875	-0623.21	-0634.01	072.96
0695.83	001725	-0622.88	-0633.68	072.96
0695.51	001670	-0622.55	-0633.35	072.96
0695.20	001525	-0622.24	-0633.04	072.96
0694.89	001530	-0621.94	-0632.74	072.96
0694.60	001555	-0621.64	-0632.44	072.96
0694.31	001535	-0621.35	-0632.15	072.96
0694.00	001525	-0621.05	-0631.85	072.96
0693.69	001665	-0620.74	-0631.54	072.96
0693.37	001540	-0620.41	-0631.21	072.96
0693.04	001580	-0620.08	-0630.88	072.96
0692.70	001695	-0619.75	-0630.55	072.96
0692.33	001645	-0619.37	-0630.17	072.96
0691.95	001495	-0618.99	-0629.79	072.96
0691.61	001650	-0618.65	-0629.45	072.96
0691.31	001570	-0618.35	-0629.15	072.96
0691.02	001505	-0618.07	-0628.87	072.96
0690.74	001660	-0617.79	-0628.59	072.96
0690.43	001655	-0617.47	-0628.27	072.96
0690.08	001630	-0617.13	-0627.93	072.96
0689.74	001560	-0616.78	-0627.58	072.96
0689.41	001645	-0616.45	-0627.25	072.96
0689.10	001630	-0616.14	-0626.94	072.96
0688.79	001510	-0615.83	-0626.63	072.96
0688.46	001540	-0615.51	-0626.31	072.96
0688.11	001605	-0615.15	-0625.95	072.96
0687.76	001635	-0614.81	-0625.61	072.96
0687.45	001500	-0614.49	-0625.29	072.96
0687.15	001590	-0614.19	-0624.99	072.96
0686.85	001655	-0613.90	-0624.70	072.96
0686.55	001570	-0613.60	-0624.40	072.96
0686.24	001505	-0613.28	-0624.08	072.96
0685.91	001750	-0612.96	-0623.76	072.96
0685.59	001405	-0612.63	-0623.43	072.96
0685.26	001600	-0612.31	-0623.11	072.96
0684.94	001560	-0611.99	-0622.79	072.96
0684.60	001590	-0611.64	-0622.44	072.96
0684.23	001645	-0611.28	-0622.08	072.96
0683.88	001590	-0610.92	-0621.72	072.96
0683.56	001740	-0610.60	-0621.40	072.96
0683.26	001565	-0610.31	-0621.11	072.96
0682.97	001565	-0610.02	-0620.82	072.96
0682.67	001520	-0609.72	-0620.52	072.96
0682.34	001600	-0609.39	-0620.19	072.96
0682.01	001565	-0609.05	-0619.85	072.96
0681.68	001595	-0608.72	-0619.52	072.96
0681.36	001465	-0608.40	-0619.20	072.96
0681.05	001640	-0608.09	-0618.89	072.96
0680.74	001640	-0607.78	-0618.58	072.96
0680.39	001615	-0607.44	-0618.24	072.96
0680.05	001630	-0607.10	-0617.90	072.96
0679.74	001620	-0606.78	-0617.58	072.96
0679.43	001740	-0606.47	-0617.27	072.96
0679.12	001565	-0606.17	-0616.97	072.96
0678.83	001710	-0605.87	-0616.67	072.96
0678.53	001740	-0605.57	-0616.37	072.96
0678.21	001620	-0605.26	-0616.06	072.96
0677.90	001535	-0604.94	-0615.74	072.96
0677.58	001545	-0604.62	-0615.42	072.96
0677.26	001490	-0604.30	-0615.10	072.96
0676.93	001490	-0603.98	-0614.78	072.96
0676.57	001635	-0603.61	-0614.41	072.96
0676.20	001545	-0603.25	-0614.05	072.96
0675.87	001610	-0602.91	-0613.71	072.96
0675.56	001490	-0602.60	-0613.40	072.96
0675.26	001650	-0602.31	-0613.11	072.96
0674.97	001525	-0602.01	-0612.81	072.96
0674.65	001630	-0601.70	-0612.50	072.96
0674.32	001510	-0601.37	-0612.17	072.96
0673.99	001450	-0601.03	-0611.83	072.96
0673.67	001440	-0600.71	-0611.51	072.96
0673.35	001490	-0600.39	-0611.19	072.96
0673.04	001670	-0600.09	-0610.89	072.96
0672.71	001500	-0599.75	-0610.55	072.96
0672.36	001505	-0599.41	-0610.21	072.96
0672.03	001610	-0599.07	-0609.87	072.96
0671.71	001630	-0598.76	-0609.56	072.96
0671.41	001575	-0598.45	-0609.25	072.96
0671.12	001575	-0598.16	-0608.96	072.96
0670.82	001585	-0597.86	-0608.66	072.96
0670.51	001630	-0597.55	-0608.35	072.96
0670.19	001505	-0597.23	-0608.03	072.96
0669.86	001700	-0596.90	-0607.70	072.96
0669.53	001750	-0596.58	-0607.38	072.96
0669.22	001655	-0596.26	-0607.06	072.96
0668.88	001500	-0595.92	-0606.72	072.96
0668.51	001545	-0595.55	-0606.35	072.96
0668.16	001665	-0595.21	-0606.01	072.96
0667.84	001700	-0594.89	-0605.69	072.96
0667.55	001695	-0594.59	-0605.39	072.96
0667.26	001575	-0594.30	-0605.10	072.96
0666.96	001595	-0594.00	-0604.80	072.96
0666.64	001570	-0593.69	-0604.49	072.96
0666.31	001565	-0593.35	-0604.15	072.96
0665.99	001600	-0593.03	-0603.83	072.96
0665.67	001355	-0592.71	-0603.51	072.96
0665.35	001575	-0592.40	-0603.20	072.96
0665.04	001600	-0592.08	-0602.88	072.96
0664.70	001515	-0591.74	-0602.54	072.96
0664.37	001590	-0591.41	-0602.21	072.96
0664.04	001555	-0591.09	-0601.89	072.96
0663.73	001465	-0590.77	-0601.57	072.96
0663.43	001720	-0590.47	-0601.27	072.96
0663.13	001670	-0590.18	-0600.98	072.96
0662.85	001550	-0589.89	-0600.69	072.96
0662.53	001480	-0589.58	-0600.38	072.96
0662.22	001590	-0589.26	-0600.06	072.96
0661.89	001700	-0588.94	-0599.74	072.96
0661.57	001590	-0588.61	-0599.41	072.96
0661.24	001490	-0588.28	-0599.08	072.96
0660.86	001690	-0587.91	-0598.71	072.96
0660.50	001635	-0587.54	-0598.34	072.96
0660.17	001515	-0587.22	-0598.02	072.96
0659.87	001705	-0586.91	-0597.71	072.96
0659.58	001530	-0586.63	-0597.43	072.96
0659.29	001520	-0586.34	-0597.14	072.96
0658.97	001555	-0586.01	-0596.81	072.96
0658.62	001585	-0585.67	-0596.47	072.96
0658.28	001635	-0585.33	-0596.13	072.96
0657.97	001480	-0585.01	-0595.81	072.96
0657.65	001590	-0584.70	-0595.50	072.96
0657.35	001395	-0584.40	-0595.20	072.96
0657.01	001450	-0584.05	-0594.85	072.96
0656.66	001555	-0583.71	-0594.51	072.96
0656.33	001680	-0583.37	-0594.17	072.96
0656.01	001440	-0583.05	-0593.85	072.96
0655.71	001410	-0582.75	-0593.55	072.96
0655.42	001535	-0582.46	-0593.26	072.96
0655.12	001620	-0582.16	-0592.96	072.96
0654.80	001580	-0581.85	-0592.65	072.96
0654.47	001495	-0581.52	-0592.32	072.96
0654.15	001660	-0581.20	-0592.00	072.96
0653.83	001645	-0580.88	-0591.68	072.96
0653.52	001505	-0580.57	-0591.37	072.96
0653.17	001590	-0580.21	-0591.01	072.96
0652.80	001450	-0579.84	-0590.64	072.96
0652.45	001520	-0579.49	-0590.29	072.96
0652.14	001635	-0579.18	-0589.98	072.96
0651.84	001495	-0578.89	-0589.69	072.96
0651.55	001435	-0578.60	-0589.40	072.96
0651.25	001570	-0578.30	-0589.10	072.96
0650.93	001475	-0577.97	-0588.77	072.96
0650.60	001505	-0577.64	-0588.44	072.96
0650.27	001555	-0577.31	-0588.11	072.96
0649.95	001555	-0576.99	-0587.79	072.96
0649.64	001525	-0576.68	-0587.48	072.96
0649.33	001640	-0576.37	-0587.17	072.96
0648.99	001620	-0576.03	-0586.83	072.96
0648.65	001530	-0575.69	-0586.49	072.96
0648.32	001375	-0575.37	-0586.17	072.96
0648.02	001410	-0575.06	-0585.86	072.96
0647.71	001550	-0574.75	-0585.55	072.96
0647.42	001460	-0574.46	-0585.26	072.96
0647.13	001430	-0574.17	-0584.97	072.96
0646.82	001625	-0573.86	-0584.66	072.96
0646.49	001630	-0573.54	-0584.34	072.96
0646.17	001465	-0573.21	-0584.01	072.96
0645.85	001550	-0572.89	-0583.69	072.96
0645.51	001610	-0572.56	-0583.36	072.96
0645.15	001595	-0572.19	-0582.99	072.96
0644.79	001575	-0571.83	-0582.63	072.96
0644.45	001570	-0571.50	-0582.30	072.96
0644.16	001430	-0571.20	-0582.00	072.96
0643.87	001525	-0570.91	-0581.71	072.96
0643.58	001650	-0570.62	-0581.42	072.96
0643.26	001635	-0570.30	-0581.10	072.96
0642.93	001575	-0569.97	-0580.77	072.96
0642.59	001555	-0569.64	-0580.44	072.96
0642.27	001295	-0569.31	-0580.11	072.96
0641.95	001620	-0569.00	-0579.80	072.96
0641.65	001555	-0568.69	-0579.49	072.96
0641.31	001605	-0568.35	-0579.15	072.96
0640.96	001465	-0568.01	-0578.81	072.96
0640.64	001530	-0567.68	-0578.48	072.96
0640.33	001420	-0567.37	-0578.17	072.96
0640.02	001510	-0567.06	-0577.86	072.96
0639.72	-000003	-0566.77	-0577.57	072.96
0639.43	001620	-0566.47	-0577.27	072.96
0639.12	001515	-0566.16	-0576.96	072.96
0638.79	001495	-0565.84	-0576.64	072.96
0638.47	001430	-0565.51	-0576.31	072.96
0638.15	001610	-0565.19	-0575.99	072.96
0637.83	001565	-0564.87	-0575.67	072.96
0637.48	001435	-0564.52	-0575.32	072.96
0637.12	001640	-0564.16	-0574.96	072.96
0636.77	001460	-0563.82	-0574.62	072.96
0636.47	001425	-0563.51	-0574.31	072.96
0636.17	001610	-0563.22	-0574.02	072.96
0635.88	001595	-0562.93	-0573.73	072.96
0635.58	001460	-0562.62	-0573.42	072.96
0635.26	001555	-0562.30	-0573.10	072.96
0634.93	001580	-0561.98	-0572.78	072.96
0634.61	001575	-0561.65	-0572.45	072.96
0634.29	001645	-0561.34	-0572.14	072.96
0633.98	001450	-0561.02	-0571.82	072.96
0633.66	001475	-0560.70	-0571.50	072.96
0633.32	001550	-0560.37	-0571.17	072.96
0632.99	001515	-0560.04	-0570.84	072.96
0632.67	001405	-0559.71	-0570.51	072.96
0632.37	001550	-0559.41	-0570.21	072.96
0632.06	001315	-0559.10	-0569.90	072.96
0631.77	001610	-0558.81	-0569.61	072.96
0631.47	001785	-0558.52	-0569.32	072.96
0631.17	001555	-0558.21	-0569.01	072.96
0630.85	001635	-0557.89	-0568.69	072.96
0630.52	001555	-0557.57	-0568.37	072.96
0630.20	001575	-0557.25	-0568.05	072.96
0629.86	001685	-0556.90	-0567.70	072.96
0629.47	001495	-0556.52	-0567.32	072.96
0629.11	001515	-0556.16	-0566.96	072.96
0628.79	001355	-0555.83	-0566.63	072.96
0628.50	001665	-0555.54	-0566.34	072.96
0628.21	001450	-0555.25	-0566.05	072.96
0627.92	001495	-0554.96	-0565.76	072.96
0627.59	001525	-0554.63	-0565.43	072.96
0627.24	001555	-0554.29	-0565.09	072.96
0626.91	001650	-0553.95	-0564.75	072.96
0626.58	001460	-0553.63	-0564.43	072.96
0626.28	001465	-0553.33	-0564.13	072.96
0625.97	001490	-0553.02	-0563.82	072.96
0625.62	001405	-0552.67	-0563.47	072.96
0625.27	001535	-0552.32	-0563.12	072.96
0624.93	001675	-0551.98	-0562.78	072.96
0624.63	001490	-0551.67	-0562.47	072.96
0624.32	001560	-0551.37	-0562.17	072.96
0624.04	001575	-0551.08	-0561.88	072.96
0623.73	001585	-0550.78	-0561.58	072.96
0623.42	001470	-0550.46	-0561.26	072.96
0623.10	001510	-0550.14	-0560.94	072.96
0622.77	001555	-0549.81	-0560.61	072.96
0622.45	001595	-0549.49	-0560.29	072.96
0622.12	001635	-0549.17	-0559.97	072.96
0621.76	001545	-0548.80	-0559.60	072.96
0621.39	001620	-0548.43	-0559.23	072.96
0621.06	001585	-0548.10	-0558.90	072.96
0620.75	001520	-0547.80	-0558.60	072.96
0620.46	001485	-0547.50	-0558.30	072.96
0620.17	001540	-0547.22	-0558.02	072.96
0619.87	001480	-0546.91	-0557.71	072.96
0619.54	001445	-0546.58	-0557.38	072.96
0619.20	001620	-0546.25	-0557.05	072.96
0618.88	001575	-0545.92	-0556.72	072.96
0618.55	001655	-0545.60	-0556.40	072.96
0618.25	001345	-0545.29	-0556.09	072.96
0617.93	001555	-0544.97	-0555.77	072.96
0617.59	001370	-0544.63	-0555.43	072.96
0617.26	001515	-0544.30	-0555.10	072.96
0616.93	001695	-0543.98	-0554.78	072.96
0616.62	001625	-0543.67	-0554.47	072.96
0616.32	001750	-0543.37	-0554.17	072.96
0616.04	001565	-0543.08	-0553.88	072.96
0615.74	001545	-0542.78	-0553.58	072.96
0615.42	001445	-0542.47	-0553.27	072.96
0615.10	001550	-0542.15	-0552.95	072.96
0614.78	001510	-0541.83	-0552.63	072.96
0614.46	001585	-0541.51	-0552.31	072.96
0614.12	001485	-0541.16	-0551.96	072.96
0613.75	001425	-0540.79	-0551.59	072.96
0613.39	001565	-0540.44	-0551.24	072.96
0613.07	001600	-0540.11	-0550.91	072.96
0612.77	001590	-0539.81	-0550.61	072.96
0612.49	001570	-0539.53	-0550.33	072.96
0612.19	001515	-0539.23	-0550.03	072.96
0611.86	001660	-0538.90	-0549.70	072.96
0611.51	001495	-0538.56	-0549.36	072.96
0611.19	001395	-0538.23	-0549.03	072.96
0610.87	001515	-0537.91	-0548.71	072.96
0610.56	001440	-0537.60	-0548.40	072.96
0610.25	001625	-0537.29	-0548.09	072.96
0609.91	001405	-0536.95	-0547.75	072.96
0609.57	001505	-0536.61	-0547.41	072.96
0609.23	001550	-0536.28	-0547.08	072.96
0608.93	001485	-0535.97	-0546.77	072.96
0608.62	001545	-0535.66	-0546.46	072.96
0608.32	001510	-0535.36	-0546.16	072.96
0608.03	001410	-0535.07	-0545.87	072.96
0607.71	001675	-0534.76	-0545.56	072.96
0607.39	001595	-0534.44	-0545.24	072.96
0607.07	001305	-0534.12	-0544.92	072.96
0606.76	001385	-0533.80	-0544.60	072.96
0606.44	001535	-0533.48	-0544.28	072.96
0606.08	001445	-0533.12	-0543.92	072.96
0605.71	001600	-0532.75	-0543.55	072.96
0605.37	001450	-0532.42	-0543.22	072.96
0605.07	001565	-0532.11	-0542.91	072.96
0604.77	001420	-0531.82	-0542.62	072.96
0604.49	001540	-0531.53	-0542.33	072.96
0604.18	001480	-0531.23	-0542.03	072.96
0603.86	001460	-0530.90	-0541.70	072.96
0603.53	001550	-0530.58	-0541.38	072.96
0603.20	001395	-0530.25	-0541.05	072.96
0602.89	001465	-0529.93	-0540.73	072.96
0602.58	001430	-0529.62	-0540.42	072.96
0602.26	001565	-0529.31	-0540.11	072.96
0601.92	001565	-0528.96	-0539.76	072.96
0601.59	001640	-0528.63	-0539.43	072.96
0601.27	001445	-0528.31	-0539.11	072.96
0600.96	001400	-0528.01	-0538.81	072.96
0600.67	001690	-0527.71	-0538.51	072.96
0600.38	001475	-0527.42	-0538.22	072.96
0600.08	001425	-0527.12	-0537.92	072.96
0599.77	001435	-0526.81	-0537.61	072.96
0599.45	001445	-0526.49	-0537.29	072.96
0599.12	001325	-0526.16	-0536.96	072.96
0598.80	001455	-0525.84	-0536.64	072.96
0598.45	001485	-0525.49	-0536.29	072.96
0598.07	001720	-0525.11	-0535.91	072.96
0597.72	001580	-0524.76	-0535.56	072.96
0597.40	001570	-0524.45	-0535.25	072.96
0597.11	001650	-0524.15	-0534.95	072.96
0596.82	001535	-0523.87	-0534.67	072.96
0596.51	001425	-0523.56	-0534.36	072.96
0596.19	001545	-0523.23	-0534.03	072.96
0595.84	001505	-0522.89	-0533.69	072.96
0595.52	001255	-0522.56	-0533.36	072.96
0595.20	001730	-0522.24	-0533.04	072.96
0594.89	001545	-0521.93	-0532.73	072.96
0594.57	001740	-0521.61	-0532.41	072.96
0594.22	001440	-0521.27	-0532.07	072.96
0593.88	001615	-0520.92	-0531.72	072.96
0593.58	001635	-0520.62	-0531.42	072.96
0593.31	001590	-0520.35	-0531.15	072.96
0593.01	001460	-0520.05	-0530.85	072.96
0592.71	001545	-0519.76	-0530.56	072.96
0592.41	001435	-0519.46	-0530.26	072.96
0592.09	001400	-0519.14	-0529.94	072.96
0591.77	001610	-0518.81	-0529.61	072.96
0591.44	001405	-0518.49	-0529.29	072.96
0591.12	001610	-0518.16	-0528.96	072.96
0590.80	001385	-0517.84	-0528.64	072.96
0590.43	001365	-0517.47	-0528.27	072.96
0590.07	001580	-0517.11	-0527.91	072.96
0589.74	001440	-0516.78	-0527.58	072.96
0589.44	001525	-0516.48	-0527.28	072.96
0589.15	001445	-0516.19	-0526.99	072.96
0588.86	001330	-0515.90	-0526.70	072.96
0588.55	001480	-0515.59	-0526.39	072.96
0588.22	001400	-0515.27	-0526.07	072.96
0587.89	001490	-0514.93	-0525.73	072.96
0587.56	001585	-0514.60	-0525.40	072.96
0587.25	001475	-0514.29	-0525.09	072.96
0586.95	001520	-0513.99	-0524.79	072.96
0586.62	001495	-0513.66	-0524.46	072.96
0586.28	001585	-0513.32	-0524.12	072.96
0585.94	001430	-0512.99	-0523.79	072.96
0585.62	001520	-0512.67	-0523.47	072.96
0585.32	001555	-0512.36	-0523.16	072.96
0585.02	001400	-0512.06	-0522.86	072.96
0584.73	001605	-0511.77	-0522.57	072.96
0584.43	001510	-0511.48	-0522.28	072.96
0584.11	001475	-0511.16	-0521.96	072.96
0583.79	001475	-0510.83	-0521.63	072.96
0583.47	001555	-0510.51	-0521.31	072.96
0583.15	001390	-0510.19	-0520.99	072.96
0582.80	001470	-0509.84	-0520.64	072.96
0582.43	001535	-0509.48	-0520.28	072.96
0582.08	001470	-0509.13	-0519.93	072.96
0581.77	001460	-0508.82	-0519.62	072.96
0581.48	001505	-0508.52	-0519.32	072.96
0581.18	001550	-0508.23	-0519.03	072.96
0580.87	001555	-0507.92	-0518.72	072.96
0580.56	001500	-0507.60	-0518.40	072.96
0580.22	001425	-0507.27	-0518.07	072.96
0579.90	001445	-0506.94	-0517.74	072.96
0579.57	001660	-0506.62	-0517.42	072.96
0579.27	001530	-0506.31	-0517.11	072.96
0578.95	001500	-0505.99	-0516.79	072.96
0578.61	001480	-0505.65	-0516.45	072.96
0578.27	001485	-0505.32	-0516.12	072.96
0577.95	001590	-0504.99	-0515.79	072.96
0577.64	001460	-0504.68	-0515.48	072.96
0577.34	001515	-0504.38	-0515.18	072.96
0577.05	001605	-0504.09	-0514.89	072.96
0576.74	001435	-0503.79	-0514.59	072.96
0576.43	001620	-0503.47	-0514.27	072.96
0576.10	001595	-0503.14	-0513.94	072.96
0575.77	001705	-0502.82	-0513.62	072.96
0575.45	001720	-0502.49	-0513.29	072.96
0575.13	001455	-0502.17	-0512.97	072.96
0574.77	001565	-0501.81	-0512.61	072.96
0574.41	001395	-0501.46	-0512.26	072.96
0574.09	001440	-0501.13	-0511.93	072.96
0573.78	001530	-0500.83	-0511.63	072.96
0573.48	001490	-0500.53	-0511.33	072.96
0573.20	001545	-0500.24	-0511.04	072.96
0572.89	001405	-0499.93	-0510.73	072.96
0572.56	001320	-0499.61	-0510.41	072.96
0572.23	001455	-0499.28	-0510.08	072.96
0571.91	001520	-0498.95	-0509.75	072.96
0571.59	001575	-0498.64	-0509.44	072.96
0571.29	001455	-0498.33	-0509.13	072.96
0570.96	001435	-0498.00	-0508.80	072.96
0570.63	001415	-0497.67	-0508.47	072.96
0570.30	001485	-0497.34	-0508.14	072.96
0569.99	001535	-0497.03	-0507.83	072.96
0569.68	001500	-0496.72	-0507.52	072.96
0569.37	001460	-0496.42	-0507.22	072.96
0569.09	001660	-0496.13	-0506.93	072.96
0568.79	001660	-0495.84	-0506.64	072.96
0568.48	001510	-0495.52	-0506.32	072.96
0568.15	001610	-0495.20	-0506.00	072.96
0567.82	001485	-0494.87	-0505.67	072.96
0567.50	001330	-0494.55	-0505.35	072.96
0567.12	001415	-0494.16	-0504.96	072.96
0566.73	001305	-0493.77	-0504.57	072.96
0566.37	001640	-0493.41	-0504.21	072.96
0566.07	001600	-0493.11	-0503.91	072.96
0565.79	001485	-0492.83	-0503.63	072.96
0565.51	001400	-0492.55	-0503.35	072.96
0565.19	001480	-0492.24	-0503.04	072.96
0564.85	001580	-0491.89	-0502.69	072.96
0564.51	001510	-0491.55	-0502.35	072.96
0564.18	001495	-0491.22	-0502.02	072.96
0563.86	001440	-0490.91	-0501.71	072.96
0563.56	001445	-0490.61	-0501.41	072.96
0563.24	001545	-0490.29	-0501.09	072.96
0562.89	001405	-0489.93	-0500.73	072.96
0562.53	001460	-0489.58	-0500.38	072.96
0562.21	001505	-0489.25	-0500.05	072.96
0561.89	001450	-0488.94	-0499.74	072.96
0561.61	001440	-0488.65	-0499.45	072.96
0561.31	001685	-0488.36	-0499.16	072.96
0561.00	001575	-0488.05	-0498.85	072.96
0560.68	001445	-0487.72	-0498.52	072.96
0560.36	001425	-0487.40	-0498.20	072.96
0560.04	001425	-0487.08	-0497.88	072.96
0559.72	001430	-0486.76	-0497.56	072.96
0559.39	001510	-0486.43	-0497.23	072.96
0559.02	001570	-0486.06	-0496.86	072.96
0558.65	001495	-0485.70	-0496.50	072.96
0558.32	001405	-0485.36	-0496.16	072.96
0558.01	001525	-0485.06	-0495.86	072.96
0557.73	001405	-0484.77	-0495.57	072.96
0557.44	001580	-0484.48	-0495.28	072.96
0557.13	001400	-0484.17	-0494.97	072.96
0556.79	001575	-0483.83	-0494.63	072.96
0556.46	001410	-0483.51	-0494.31	072.96
0556.14	001455	-0483.18	-0493.98	072.96
0555.82	001455	-0482.86	-0493.66	072.96
0555.50	001535	-0482.55	-0493.35	072.96
0555.17	001545	-0482.22	-0493.02	072.96
0554.83	001555	-0481.88	-0492.68	072.96
0554.51	001435	-0481.55	-0492.35	072.96
0554.19	001495	-0481.24	-0492.04	072.96
0553.89	001390	-0480.93	-0491.73	072.96
0553.59	001480	-0480.64	-0491.44	072.96
0553.30	001600	-0480.34	-0491.14	072.96
0552.99	001530	-0480.04	-0490.84	072.96
0552.67	001405	-0479.72	-0490.52	072.96
0552.35	001545	-0479.39	-0490.19	072.96
0552.02	001495	-0479.07	-0489.87	072.96
0551.70	001435	-0478.75	-0489.55	072.96
0551.34	001340	-0478.39	-0489.19	072.96
0550.98	001305	-0478.02	-0488.82	072.96
0550.64	001470	-0477.69	-0488.49	072.96
0550.33	001645	-0477.38	-0488.18	072.96
0550.04	001505	-0477.09	-0487.89	072.96
0549.75	001520	-0476.80	-0487.60	072.96
0549.44	001490	-0476.48	-0487.28	072.96
0549.10	001430	-0476.15	-0486.95	072.96
0548.76	001515	-0475.81	-0486.61	072.96
0548.43	001525	-0475.48	-0486.28	072.96
0548.12	001465	-0475.16	-0485.96	072.96
0547.82	001360	-0474.86	-0485.66	072.96
0547.49	001580	-0474.54	-0485.34	072.96
0547.14	001490	-0474.18	-0484.98	072.96
0546.80	001560	-0473.84	-0484.64	072.96
0546.48	001470	-0473.52	-0484.32	072.96
0546.17	001465	-0473.22	-0484.02	072.96
0545.88	001525	-0472.92	-0483.72	072.96
0545.58	001460	-0472.62	-0483.42	072.96
0545.27	001620	-0472.31	-0483.11	072.96
0544.95	001595	-0471.99	-0482.79	072.96
0544.62	001675	-0471.67	-0482.47	072.96
0544.30	001285	-0471.35	-0482.15	072.96
0543.98	001410	-0471.03	-0481.83	072.96
0543.65	001335	-0470.69	-0481.49	072.96
0543.28	001600	-0470.33	-0481.13	072.96
0542.93	001455	-0469.97	-0480.77	072.96
0542.61	001530	-0469.65	-0480.45	072.96
0542.31	001445	-0469.35	-0480.15	072.96
0542.02	001530	-0469.06	-0479.86	072.96
0541.72	001600	-0468.77	-0479.57	072.96
0541.41	001485	-0468.45	-0479.25	072.96
0541.08	001525	-0468.12	-0478.92	072.96
0540.75	001595	-0467.80	-0478.60	072.96
0540.43	001490	-0467.47	-0478.27	072.96
0540.11	001610	-0467.16	-0477.96	072.96
0539.81	001540	-0466.85	-0477.65	072.96
0539.47	001450	-0466.52	-0477.32	072.96
0539.14	001415	-0466.18	-0476.98	072.96
0538.81	001560	-0465.85	-0476.65	072.96
0538.50	001385	-0465.54	-0476.34	072.96
0538.20	001540	-0465.24	-0476.04	072.96
0537.90	001420	-0464.94	-0475.74	072.96
0537.60	001440	-0464.65	-0475.45	072.96
0537.29	001615	-0464.34	-0475.14	072.96
0536.98	001370	-0464.02	-0474.82	072.96
0536.66	001475	-0463.70	-0474.50	072.96
0536.34	001480	-0463.38	-0474.18	072.96
0536.01	001460	-0463.06	-0473.86	072.96
0535.64	001440	-0462.69	-0473.49	072.96
0535.27	001490	-0462.31	-0473.11	072.96
0534.92	001445	-0461.97	-0472.77	072.96
0534.62	001440	-0461.66	-0472.46	072.96
0534.33	001550	-0461.37	-0472.17	072.96
0534.05	001415	-0461.09	-0471.89	072.96
0533.74	001525	-0460.78	-0471.58	072.96
0533.40	001495	-0460.44	-0471.24	072.96
0533.06	001600	-0460.10	-0470.90	072.96
0532.73	001335	-0459.78	-0470.58	072.96
0532.41	001590	-0459.46	-0470.26	072.96
0532.11	001515	-0459.16	-0469.96	072.96
0531.78	001475	-0458.83	-0469.63	072.96
0531.43	001575	-0458.47	-0469.27	072.96
0531.09	001625	-0458.14	-0468.94	072.96
0530.76	001460	-0457.81	-0468.61	072.96
0530.46	001575	-0457.50	-0468.30	072.96
0530.16	001310	-0457.21	-0468.01	072.96
0529.88	001430	-0456.92	-0467.72	072.96
0529.57	001410	-0456.61	-0467.41	072.96
0529.24	001580	-0456.29	-0467.09	072.96
0528.92	001375	-0455.96	-0466.76	072.96
0528.59	001390	-0455.64	-0466.44	072.96
0528.28	001365	-0455.33	-0466.13	072.96
0527.94	001480	-0454.98	-0465.78	072.96
0527.57	001510	-0454.61	-0465.41	072.96
0527.21	001645	-0454.25	-0465.05	072.96
0526.89	001440	-0453.93	-0464.73	072.96
0526.59	001465	-0453.64	-0464.44	072.96
0526.31	001415	-0453.35	-0464.15	072.96
0526.01	001515	-0453.05	-0463.85	072.96
0525.69	001510	-0452.73	-0463.53	072.96
0525.35	001470	-0452.40	-0463.20	072.96
0525.02	001500	-0452.07	-0462.87	072.96
0524.70	001455	-0451.75	-0462.55	072.96
0524.39	001440	-0451.44	-0462.24	072.96
0524.08	001400	-0451.12	-0461.92	072.96
0523.74	001435	-0450.79	-0461.59	072.96
0523.40	001430	-0450.45	-0461.25	072.96
0523.08	001565	-0450.12	-0460.92	072.96
0522.77	001565	-0449.81	-0460.61	072.96
0522.46	001530	-0449.51	-0460.31	072.96
0522.17	001575	-0449.21	-0460.01	072.96
0521.88	001430	-0448.92	-0459.72	072.96
0521.57	001510	-0448.61	-0459.41	072.96
0521.25	001685	-0448.30	-0459.10	072.96
0520.93	001550	-0447.98	-0458.78	072.96
0520.61	001455	-0447.65	-0458.45	072.96
0520.28	001515	-0447.33	-0458.13	072.96
0519.92	001390	-0446.97	-0457.77	072.96
0519.55	001380	-0446.60	-0457.40	072.96
0519.22	001490	-0446.26	-0457.06	072.96
0518.91	001310	-0445.96	-0456.76	072.96
0518.62	001655	-0445.66	-0456.46	072.96
0518.33	001465	-0445.38	-0456.18	072.96
0518.02	001550	-0445.07	-0455.87	072.96
0517.69	001605	-0444.73	-0455.53	072.96
0517.36	001325	-0444.40	-0455.20	072.96
0517.03	001550	-0444.07	-0454.87	072.96
0516.71	001470	-0443.76	-0454.56	072.96
0516.41	001410	-0443.45	-0454.25	072.96
0516.07	001310	-0443.12	-0453.92	072.96
0515.73	001400	-0442.77	-0453.57	072.96
0515.39	001585	-0442.44	-0453.24	072.96
0515.07	001490	-0442.11	-0452.91	072.96
0514.77	001510	-0441.81	-0452.61	072.96
0514.47	001415	-0441.52	-0452.32	072.96
0514.18	001420	-0441.22	-0452.02	072.96
0513.87	001550	-0440.91	-0451.71	072.96
0513.55	001405	-0440.60	-0451.40	072.96
0513.23	001580	-0440.28	-0451.08	072.96
0512.90	001505	-0439.95	-0450.75	072.96
0512.59	001405	-0439.63	-0450.43	072.96
0512.24	001395	-0439.29	-0450.09	072.96
0511.88	001335	-0438.92	-0449.72	072.96
0511.53	001335	-0438.58	-0449.38	072.96
0511.21	001525	-0438.26	-0449.06	072.96
0510.91	001410	-0437.96	-0448.76	072.96
0510.63	001560	-0437.67	-0448.47	072.96
0510.33	001500	-0437.37	-0448.17	072.96
0510.02	001380	-0437.06	-0447.86	072.96
0509.69	001435	-0436.73	-0447.53	072.96
0509.36	001475	-0436.41	-0447.21	072.96
0509.04	001410	-0436.09	-0446.89	072.96
0508.73	001400	-0435.77	-0446.57	072.96
0508.41	001490	-0435.46	-0446.26	072.96
0508.08	001440	-0435.12	-0445.92	072.96
0507.74	001505	-0434.78	-0445.58	072.96
0507.42	001490	-0434.47	-0445.27	072.96
0507.11	001460	-0434.16	-0444.96	072.96
0506.81	001460	-0433.85	-0444.65	072.96
0506.52	001515	-0433.56	-0444.36	072.96
0506.22	001440	-0433.27	-0444.07	072.96
0505.92	001360	-0432.97	-0443.77	072.96
0505.61	001495	-0432.65	-0443.45	072.96
0505.27	001500	-0432.32	-0443.12	072.96
0504.95	001400	-0432.00	-0442.80	072.96
0504.62	001380	-0431.67	-0442.47	072.96
0504.24	001405	-0431.29	-0442.09	072.96
0503.87	001580	-0430.91	-0441.71	072.96
0503.54	001450	-0430.58	-0441.38	072.96
0503.23	001590	-0430.28	-0441.08	072.96
0502.95	001515	-0429.99	-0440.79	072.96
0502.66	001520	-0429.70	-0440.50	072.96
0502.34	001415	-0429.38	-0440.18	072.96
0502.00	001435	-0429.04	-0439.84	072.96
0501.66	001435	-0428.70	-0439.50	072.96
0501.33	001440	-0428.37	-0439.17	072.96
0501.02	001555	-0428.06	-0438.86	072.96
0500.71	001520	-0427.75	-0438.55	072.96
0500.38	001420	-0427.42	-0438.22	072.96
0500.03	001560	-0427.07	-0437.87	072.96
0499.69	001415	-0426.73	-0437.53	072.96
0499.37	001520	-0426.41	-0437.21	072.96
0499.06	001415	-0426.11	-0436.91	072.96
0498.77	001365	-0425.81	-0436.61	072.96
0498.47	001480	-0425.51	-0436.31	072.96
0498.16	001425	-0425.20	-0436.00	072.96
0497.83	001370	-0424.88	-0435.68	072.96
0497.51	001470	-0424.56	-0435.36	072.96
0497.19	001415	-0424.24	-0435.04	072.96
0496.88	001525	-0423.92	-0434.72	072.96
0496.52	001540	-0423.57	-0434.37	072.96
0496.15	001610	-0423.20	-0434.00	072.96
0495.80	001500	-0422.85	-0433.65	072.96
0495.48	001560	-0422.52	-0433.32	072.96
0495.19	001440	-0422.23	-0433.03	072.96
0494.90	001345	-0421.95	-0432.75	072.96
0494.60	001430	-0421.64	-0432.44	072.96
0494.28	001575	-0421.32	-0432.12	072.96
0493.93	001215	-0420.98	-0431.78	072.96
0493.61	001405	-0420.66	-0431.46	072.96
0493.30	001465	-0420.34	-0431.14	072.96
0492.99	001390	-0420.03	-0430.83	072.96
0492.68	001440	-0419.72	-0430.52	072.96
0492.34	001490	-0419.38	-0430.18	072.96
0492.00	001365	-0419.04	-0429.84	072.96
0491.68	001525	-0418.72	-0429.52	072.96
0491.36	001355	-0418.40	-0429.20	072.96
0491.06	001425	-0418.10	-0428.90	072.96
0490.77	001485	-0417.81	-0428.61	072.96
0490.48	001660	-0417.52	-0428.32	072.96
0490.16	001545	-0417.21	-0428.01	072.96
0489.84	001435	-0416.88	-0427.68	072.96
0489.52	001575	-0416.56	-0427.36	072.96
0489.19	001515	-0416.24	-0427.04	072.96
0488.86	001405	-0415.91	-0426.71	072.96
0488.49	001625	-0415.54	-0426.34	072.96
0488.13	001415	-0415.18	-0425.98	072.96
0487.81	001455	-0414.85	-0425.65	072.96
0487.50	001470	-0414.54	-0425.34	072.96
0487.21	001415	-0414.26	-0425.06	072.96
0486.92	001335	-0413.96	-0424.76	072.96
0486.60	001420	-0413.65	-0424.45	072.96
0486.27	001530	-0413.31	-0424.11	072.96
0485.93	001290	-0412.97	-0423.77	072.96
0485.61	001510	-0412.65	-0423.45	072.96
0485.30	001420	-0412.34	-0423.14	072.96
0484.99	001565	-0412.03	-0422.83	072.96
0484.65	001420	-0411.70	-0422.50	072.96
0484.30	001535	-0411.35	-0422.15	072.96
0483.97	001280	-0411.01	-0421.81	072.96
0483.65	001405	-0410.70	-0421.50	072.96
0483.35	001525	-0410.40	-0421.20	072.96
0483.06	001400	-0410.11	-0420.91	072.96
0482.77	001645	-0409.81	-0420.61	072.96
0482.45	001460	-0409.50	-0420.30	072.96
0482.13	001330	-0409.18	-0419.98	072.96
0481.81	001470	-0408.85	-0419.65	072.96
0481.48	001315	-0408.53	-0419.33	072.96
0481.16	001380	-0408.20	-0419.00	072.96
0480.80	001390	-0407.85	-0418.65	072.96
0480.44	001430	-0407.48	-0418.28	072.96
0480.09	001450	-0407.14	-0417.94	072.96
0479.78	001310	-0406.82	-0417.62	072.96
0479.49	001450	-0406.53	-0417.33	072.96
0479.20	001370	-0406.24	-0417.04	072.96
0478.90	001470	-0405.95	-0416.75	072.96
0478.58	001365	-0405.62	-0416.42	072.96
0478.24	001395	-0405.29	-0416.09	072.96
0477.92	001585	-0404.96	-0415.76	072.96
0477.60	001495	-0404.64	-0415.44	072.96
0477.29	001500	-0404.33	-0415.13	072.96
0476.97	001280	-0404.02	-0414.82	072.96
0476.64	001475	-0403.68	-0414.48	072.96
0476.30	001365	-0403.35	-0414.15	072.96
0475.98	001315	-0403.02	-0413.82	072.96
0475.67	001530	-0402.71	-0413.51	072.96
0475.36	001380	-0402.41	-0413.21	072.96
0475.07	001505	-0402.11	-0412.91	072.96
0474.77	001330	-0401.82	-0412.62	072.96
0474.47	001410	-0401.51	-0412.31	072.96
0474.15	001420	-0401.20	-0412.00	072.96
0473.83	001400	-0400.87	-0411.67	072.96
0473.50	001350	-0400.55	-0411.35	072.96
0473.17	001375	-0400.22	-0411.02	072.96
0472.79	001370	-0399.84	-0410.64	072.96
0472.43	001445	-0399.48	-0410.28	072.96
0472.10	001425	-0399.15	-0409.95	072.96
0471.81	001475	-0398.86	-0409.66	072.96
0471.53	001560	-0398.57	-0409.37	072.96
0471.23	001465	-0398.27	-0409.07	072.96
0470.90	001300	-0397.94	-0408.74	072.96
0470.56	001400	-0397.60	-0408.40	072.96
0470.23	001490	-0397.27	-0408.07	072.96
0469.91	001320	-0396.95	-0407.75	072.96
0469.60	001530	-0396.64	-0407.44	072.96
0469.29	001395	-0396.33	-0407.13	072.96
0468.94	001595	-0395.99	-0406.79	072.96
0468.60	001485	-0395.64	-0406.44	072.96
0468.26	001420	-0395.31	-0406.11	072.96
0467.95	001410	-0394.99	-0405.79	072.96
0467.65	-000002	-0394.70	-0405.50	072.96
0467.36	001385	-0394.40	-0405.20	072.96
0467.06	001375	-0394.10	-0404.90	072.96
0466.74	001570	-0393.79	-0404.59	072.96
0466.42	001235	-0393.47	-0404.27	072.96
0466.10	001325	-0393.15	-0403.95	072.96
0465.78	001480	-0392.82	-0403.62	072.96
0465.46	001435	-0392.51	-0403.31	072.96
0465.11	001430	-0392.15	-0402.95	072.96
0464.74	001490	-0391.78	-0402.58	072.96
0464.39	001465	-0391.44	-0402.24	072.96
0464.08	001445	-0391.13	-0401.93	072.96
0463.79	001460	-0390.83	-0401.63	072.96
0463.50	001585	-0390.54	-0401.34	072.96
0463.20	001280	-0390.24	-0401.04	072.96
0462.87	001420	-0389.92	-0400.72	072.96
0462.54	001510	-0389.59	-0400.39	072.96
0462.21	001480	-0389.26	-0400.06	072.96
0461.90	001355	-0388.94	-0399.74	072.96
0461.59	001530	-0388.63	-0399.43	072.96
0461.27	001460	-0388.31	-0399.11	072.96
0460.93	001450	-0387.97	-0398.77	072.96
0460.59	001480	-0387.64	-0398.44	072.96
0460.27	001400	-0387.32	-0398.12	072.96
0459.97	001300	-0387.01	-0397.81	072.96
0459.66	001345	-0386.70	-0397.50	072.96
0459.37	001445	-0386.41	-0397.21	072.96
0459.07	001490	-0386.11	-0396.91	072.96
0458.76	001345	-0385.80	-0396.60	072.96
0458.44	001480	-0385.48	-0396.28	072.96
0458.11	001495	-0385.15	-0395.95	072.96
0457.79	001485	-0384.84	-0395.64	072.96
0457.45	001515	-0384.50	-0395.30	072.96
0457.08	001435	-0384.12	-0394.92	072.96
0456.72	001540	-0383.76	-0394.56	072.96
0456.40	001340	-0383.45	-0394.25	072.96
0456.11	001330	-0383.15	-0393.95	072.96
0455.82	001470	-0382.87	-0393.67	072.96
0455.53	001360	-0382.57	-0393.37	072.96
0455.20	001445	-0382.25	-0393.05	072.96
0454.86	001530	-0381.91	-0392.71	072.96
0454.53	001465	-0381.57	-0392.37	072.96
0454.21	001430	-0381.25	-0392.05	072.96
0453.90	001330	-0380.94	-0391.74	072.96
0453.59	001430	-0380.63	-0391.43	072.96
0453.25	001550	-0380.29	-0391.09	072.96
0452.91	001420	-0379.95	-0390.75	072.96
0452.58	001425	-0379.63	-0390.43	072.96
0452.27	001495	-0379.31	-0390.11	072.96
0451.96	001450	-0379.01	-0389.81	072.96
0451.67	001315	-0378.72	-0389.52	072.96
0451.37	001420	-0378.42	-0389.22	072.96
0451.06	001505	-0378.10	-0388.90	072.96
0450.74	001335	-0377.78	-0388.58	072.96
0450.41	001465	-0377.46	-0388.26	072.96
0450.09	001455	-0377.14	-0387.94	072.96
0449.77	001530	-0376.82	-0387.62	072.96
0449.42	001445	-0376.47	-0387.27	072.96
0449.06	001510	-0376.11	-0386.91	072.96
0448.72	001410	-0375.77	-0386.57	072.96
0448.41	001450	-0375.46	-0386.26	072.96
0448.11	001295	-0375.16	-0385.96	072.96
0447.82	001470	-0374.86	-0385.66	072.96
0447.52	001385	-0374.56	-0385.36	072.96
0447.20	001435	-0374.25	-0385.05	072.96
0446.88	001480	-0373.92	-0384.72	072.96
0446.55	001380	-0373.59	-0384.39	072.96
0446.23	001460	-0373.27	-0384.07	072.96
0445.93	001535	-0372.97	-0383.77	072.96
0445.61	001495	-0372.65	-0383.45	072.96
0445.27	001440	-0372.32	-0383.12	072.96
0444.94	001405	-0371.98	-0382.78	072.96
0444.62	001460	-0371.67	-0382.47	072.96
0444.31	001345	-0371.35	-0382.15	072.96
0444.01	001360	-0371.05	-0381.85	072.96
0443.72	001450	-0370.77	-0381.57	072.96
0443.43	001405	-0370.47	-0381.27	072.96
0443.12	001420	-0370.16	-0380.96	072.96
0442.79	001360	-0369.84	-0380.64	072.96
0442.47	001275	-0369.52	-0380.32	072.96
0442.15	001480	-0369.19	-0379.99	072.96
0441.79	001445	-0368.83	-0379.63	072.96
0441.40	001370	-0368.44	-0379.24	072.96
0441.03	001480	-0368.07	-0378.87	072.96
0440.71	001495	-0367.75	-0378.55	072.96
0440.42	001510	-0367.46	-0378.26	072.96
0440.14	001320	-0367.19	-0377.99	072.96
0439.85	001380	-0366.90	-0377.70	072.96
0439.52	001370	-0366.56	-0377.36	072.96
0439.17	001555	-0366.21	-0377.01	072.96
0438.84	001380	-0365.88	-0376.68	072.96
0438.52	001385	-0365.56	-0376.36	072.96
0438.22	001420	-0365.26	-0376.06	072.96
0437.90	001430	-0364.95	-0375.75	072.96
0437.56	001475	-0364.60	-0375.40	072.96
0437.21	001430	-0364.25	-0375.05	072.96
0436.88	001395	-0363.92	-0374.72	072.96
0436.56	001360	-0363.61	-0374.41	072.96
0436.26	001445	-0363.31	-0374.11	072.96
0435.97	001455	-0363.02	-0373.82	072.96
0435.67	001445	-0362.71	-0373.51	072.96
0435.35	001510	-0362.39	-0373.19	072.96
0435.03	001725	-0362.07	-0372.87	072.96
0434.70	001515	-0361.74	-0372.54	072.96
0434.38	001515	-0361.42	-0372.22	072.96
0434.06	001410	-0361.10	-0371.90	072.96
0433.69	001490	-0360.73	-0371.53	072.96
0433.32	001465	-0360.37	-0371.17	072.96
0432.98	001450	-0360.03	-0370.83	072.96
0432.68	001250	-0359.72	-0370.52	072.96
0432.39	001415	-0359.43	-0370.23	072.96
0432.10	001475	-0359.14	-0369.94	072.96
0431.79	001720	-0358.84	-0369.64	072.96
0431.46	001425	-0358.50	-0369.30	072.96
0431.12	001475	-0358.17	-0368.97	072.96
0430.80	001490	-0357.85	-0368.65	072.96
0430.49	001420	-0357.53	-0368.33	072.96
0430.18	001520	-0357.23	-0368.03	072.96
0429.85	001515	-0356.89	-0367.69	072.96
0429.50	001310	-0356.55	-0367.35	072.96
0429.17	001410	-0356.22	-0367.02	072.96
0428.85	001380	-0355.90	-0366.70	072.96
0428.54	001455	-0355.59	-0366.39	072.96
0428.25	001400	-0355.29	-0366.09	072.96
0427.95	001380	-0354.99	-0365.79	072.96
0427.65	001270	-0354.69	-0365.49	072.96
0427.34	001405	-0354.38	-0365.18	072.96
0427.02	001465	-0354.06	-0364.86	072.96
0426.69	001620	-0353.74	-0364.54	072.96
0426.37	001390	-0353.41	-0364.21	072.96
0426.02	001420	-0353.07	-0363.87	072.96
0425.65	001395	-0352.69	-0363.49	072.96
0425.29	001305	-0352.34	-0363.14	072.96
0424.98	001330	-0352.02	-0362.82	072.96
0424.69	001435	-0351.73	-0362.53	072.96
0424.40	001635	-0351.45	-0362.25	072.96
0424.10	001420	-0351.14	-0361.94	072.96
0423.78	001305	-0350.82	-0361.62	072.96
0423.43	001520	-0350.47	-0361.27	072.96
0423.10	001280	-0350.14	-0360.94	072.96
0422.77	001510	-0349.82	-0360.62	072.96
0422.47	001500	-0349.51	-0360.31	072.96
0422.15	001425	-0349.20	-0360.00	072.96
0421.80	001350	-0348.85	-0359.65	072.96
0421.46	001510	-0348.50	-0359.30	072.96
0421.12	001570	-0348.17	-0358.97	072.96
0420.82	001360	-0347.86	-0358.66	072.96
0420.52	001375	-0347.57	-0358.37	072.96
0420.23	001555	-0347.27	-0358.07	072.96
0419.93	001380	-0346.97	-0357.77	072.96
0419.62	001420	-0346.66	-0357.46	072.96
0419.30	001270	-0346.34	-0357.14	072.96
0418.97	001580	-0346.02	-0356.82	072.96
0418.65	001450	-0345.69	-0356.49	072.96
0418.33	001315	-0345.37	-0356.17	072.96
0417.97	001455	-0345.01	-0355.81	072.96
0417.60	001350	-0344.65	-0355.45	072.96
0417.26	001345	-0344.31	-0355.11	072.96
0416.96	001530	-0344.00	-0354.80	072.96
0416.68	001530	-0343.72	-0354.52	072.96
0416.39	001390	-0343.43	-0354.23	072.96
0416.08	001515	-0343.12	-0353.92	072.96
0415.75	001435	-0342.79	-0353.59	072.96
0415.41	001375	-0342.46	-0353.26	072.96
0415.09	001230	-0342.14	-0352.94	072.96
0414.78	001385	-0341.82	-0352.62	072.96
0414.47	001370	-0341.51	-0352.31	072.96
0414.14	001520	-0341.18	-0351.98	072.96
0413.80	001495	-0340.85	-0351.65	072.96
0413.47	001525	-0340.52	-0351.32	072.96
0413.16	001440	-0340.20	-0351.00	072.96
0412.85	001545	-0339.90	-0350.70	072.96
0412.55	001345	-0339.59	-0350.39	072.96
0412.26	001220	-0339.30	-0350.10	072.96
0411.95	001455	-0339.00	-0349.80	072.96
0411.64	001445	-0338.68	-0349.48	072.96
0411.32	001465	-0338.36	-0349.16	072.96
0410.99	001450	-0338.04	-0348.84	072.96
0410.67	001515	-0337.71	-0348.51	072.96
0410.31	001480	-0337.35	-0348.15	072.96
0409.93	001475	-0336.98	-0347.78	072.96
0409.58	001600	-0336.63	-0347.43	072.96
0409.28	001395	-0336.32	-0347.12	072.96
0408.98	001500	-0336.03	-0346.83	072.96
0408.69	001405	-0335.74	-0346.54	072.96
0408.38	001695	-0335.43	-0346.23	072.96
0408.05	001390	-0335.10	-0345.90	072.96
0407.71	001350	-0334.75	-0345.55	072.96
0407.38	001320	-0334.42	-0345.22	072.96
0407.06	001300	-0334.11	-0344.91	072.96
0406.76	001325	-0333.80	-0344.60	072.96
0406.44	001490	-0333.48	-0344.28	072.96
0406.09	001310	-0333.14	-0343.94	072.96
0405.75	001520	-0332.79	-0343.59	072.96
0405.43	001350	-0332.47	-0343.27	072.96
0405.11	001400	-0332.16	-0342.96	072.96
0404.82	001390	-0331.86	-0342.66	072.96
0404.53	001365	-0331.57	-0342.37	072.96
0404.22	001395	-0331.27	-0342.07	072.96
0403.90	001285	-0330.95	-0341.75	072.96
0403.58	001340	-0330.62	-0341.42	072.96
0403.25	001345	-0330.29	-0341.09	072.96
0402.93	001415	-0329.98	-0340.78	072.96
0402.61	001365	-0329.65	-0340.45	072.96
0402.25	001340	-0329.29	-0340.09	072.96
0401.88	001425	-0328.93	-0339.73	072.96
0401.55	001500	-0328.60	-0339.40	072.96
0401.25	001470	-0328.29	-0339.09	072.96
0400.95	001285	-0328.00	-0338.80	072.96
0400.66	001435	-0327.71	-0338.51	072.96
0400.36	001500	-0327.40	-0338.20	072.96
0400.03	001365	-0327.07	-0337.87	072.96
0399.69	001255	-0326.74	-0337.54	072.96
0399.37	001430	-0326.41	-0337.21	072.96
0399.05	001240	-0326.10	-0336.90	072.96
0398.75	001420	-0325.79	-0336.59	072.96
0398.41	001400	-0325.46	-0336.26	072.96
0398.07	001485	-0325.11	-0335.91	072.96
0397.74	001455	-0324.78	-0335.58	072.96
0397.43	001325	-0324.47	-0335.27	072.96
0397.12	001410	-0324.17	-0334.97	072.96
0396.83	001460	-0323.87	-0334.67	072.96
0396.53	001305	-0323.58	-0334.38	072.96
0396.23	001415	-0323.28	-0334.08	072.96
0395.91	001575	-0322.96	-0333.76	072.96
0395.62	001535	-0322.67	-0333.47	072.96
0395.33	001400	-0322.38	-0333.18	072.96
0395.01	001340	-0322.05	-0332.85	072.96
0394.65	001370	-0321.70	-0332.50	072.96
0394.28	001355	-0321.33	-0332.13	072.96
0393.94	001590	-0320.98	-0331.78	072.96
0393.63	001400	-0320.68	-0331.48	072.96
0393.34	001425	-0320.39	-0331.19	072.96
0393.05	001390	-0320.10	-0330.90	072.96
0392.75	001355	-0319.79	-0330.59	072.96
0392.41	001550	-0319.46	-0330.26	072.96
0392.07	001445	-0319.12	-0329.92	072.96
0391.75	001320	-0318.79	-0329.59	072.96
0391.43	001385	-0318.47	-0329.27	072.96
0391.13	001360	-0318.17	-0328.97	072.96
0390.81	001300	-0317.85	-0328.65	072.96
0390.46	001420	-0317.51	-0328.31	072.96
0390.12	001325	-0317.17	-0327.97	072.96
0389.80	001400	-0316.84	-0327.64	072.96
0389.48	001440	-0316.53	-0327.33	072.96
0389.19	001315	-0316.23	-0327.03	072.96
0388.89	001335	-0315.94	-0326.74	072.96
0388.59	001470	-0315.63	-0326.43	072.96
0388.28	001330	-0315.32	-0326.12	072.96
0387.96	001345	-0315.00	-0325.80	072.96
0387.63	001425	-0314.68	-0325.48	072.96
0387.31	001340	-0314.36	-0325.16	072.96
0386.98	001450	-0314.02	-0324.82	072.96
0386.62	001340	-0313.66	-0324.46	072.96
0386.26	001465	-0313.31	-0324.11	072.96
0385.94	001430	-0312.98	-0323.78	072.96
0385.64	001455	-0312.68	-0323.48	072.96
0385.34	001450	-0312.39	-0323.19	072.96
0385.05	001385	-0312.09	-0322.89	072.96
0384.74	001545	-0311.79	-0322.59	072.96
0384.41	001390	-0311.46	-0322.26	072.96
0384.09	001235	-0311.14	-0321.94	072.96
0383.78	001455	-0310.82	-0321.62	072.96
0383.46	001355	-0310.50	-0321.30	072.96
0383.15	001585	-0310.19	-0320.99	072.96
0382.81	001340	-0309.86	-0320.66	072.96
0382.48	001510	-0309.52	-0320.32	072.96
0382.15	001350	-0309.19	-0319.99	072.96
0381.84	001365	-0308.88	-0319.68	072.96
0381.53	001420	-0308.58	-0319.38	072.96
0381.23	001365	-0308.28	-0319.08	072.96
0380.94	001435	-0307.99	-0318.79	072.96
0380.64	001295	-0307.69	-0318.49	072.96
0380.33	001370	-0307.38	-0318.18	072.96
0380.00	001225	-0307.05	-0317.85	072.96
0379.68	001430	-0306.73	-0317.53	072.96
0379.36	001410	-0306.40	-0317.20	072.96
0378.99	001425	-0306.04	-0316.84	072.96
0378.61	001500	-0305.66	-0316.46	072.96
0378.27	001395	-0305.32	-0316.12	072.96
0377.96	001425	-0305.01	-0315.81	072.96
0377.67	001525	-0304.72	-0315.52	072.96
0377.39	001380	-0304.43	-0315.23	072.96
0377.07	001440	-0304.12	-0314.92	072.96
0376.74	000910	-0303.78	-0314.58	072.96
0376.40	000000	-0303.44	-0314.24	072.96
0376.07	000000	-0303.11	-0313.91	072.96
0375.75	000005	-0302.80	-0313.60	072.96
0375.46	000000	-0302.50	-0313.30	072.96
0375.13	000000	-0302.18	-0312.98	072.96
0374.78	000585	-0301.82	-0312.62	072.96
0374.44	001330	-0301.48	-0312.28	072.96
0374.11	001570	-0301.16	-0311.96	072.96
0373.80	001610	-0300.85	-0311.65	072.96
0373.50	001535	-0300.55	-0311.35	072.96
0373.21	001425	-0300.25	-0311.05	072.96
0372.90	001500	-0299.95	-0310.75	072.96
0372.58	001570	-0299.63	-0310.43	072.96
0372.26	001620	-0299.30	-0310.10	072.96
0371.94	001345	-0298.98	-0309.78	072.96
0371.62	001495	-0298.66	-0309.46	072.96
0371.28	001395	-0298.33	-0309.13	072.96
0370.91	001505	-0297.95	-0308.75	072.96
0370.55	001400	-0297.60	-0308.40	072.96
0370.23	001390	-0297.27	-0308.07	072.96
0369.93	001370	-0296.97	-0307.77	072.96
0369.64	001475	-0296.68	-0307.48	072.96
0369.34	001505	-0296.38	-0307.18	072.96
0369.03	001355	-0296.07	-0306.87	072.96
0368.69	001375	-0295.73	-0306.53	072.96
0368.36	001340	-0295.41	-0306.21	072.96
0368.04	001415	-0295.08	-0305.88	072.96
0367.72	001435	-0294.77	-0305.57	072.96
0367.41	001580	-0294.46	-0305.26	072.96
0367.07	001415	-0294.12	-0304.92	072.96
0366.74	001435	-0293.78	-0304.58	072.96
0366.41	001405	-0293.46	-0304.26	072.96
0366.10	001505	-0293.14	-0303.94	072.96
0365.79	001420	-0292.84	-0303.64	072.96
0365.50	001280	-0292.54	-0303.34	072.96
0365.20	001490	-0292.24	-0303.04	072.96
0364.89	001425	-0291.94	-0302.74	072.96
0364.57	001485	-0291.62	-0302.42	072.96
0364.25	001345	-0291.29	-0302.09	072.96
0363.92	001380	-0290.96	-0301.76	072.96
0363.60	001260	-0290.65	-0301.45	072.96
0363.24	001420	-0290.29	-0301.09	072.96
0362.88	001405	-0289.93	-0300.73	072.96
0362.54	001480	-0289.59	-0300.39	072.96
0362.23	001350	-0289.27	-0300.07	072.96
0361.94	001335	-0288.98	-0299.78	072.96
0361.65	001430	-0288.69	-0299.49	072.96
0361.33	001400	-0288.38	-0299.18	072.96
0361.00	001440	-0288.04	-0298.84	072.96
0360.67	001560	-0287.71	-0298.51	072.96
0360.34	001465	-0287.39	-0298.19	072.96
0360.03	001275	-0287.07	-0297.87	072.96
0359.73	001370	-0286.77	-0297.57	072.96
0359.40	001465	-0286.44	-0297.24	072.96
0359.06	001385	-0286.10	-0296.90	072.96
0358.71	001365	-0285.76	-0296.56	072.96
0358.39	001450	-0285.44	-0296.24	072.96
0358.09	001500	-0285.13	-0295.93	072.96
0357.79	001560	-0284.83	-0295.63	072.96
0357.50	001410	-0284.54	-0295.34	072.96
0357.19	001265	-0284.24	-0295.04	072.96
0356.87	001395	-0283.91	-0294.71	072.96
0356.55	001370	-0283.59	-0294.39	072.96
0356.22	001545	-0283.27	-0294.07	072.96
0355.91	001400	-0282.95	-0293.75	072.96
0355.57	001260	-0282.61	-0293.41	072.96
0355.20	001510	-0282.25	-0293.05	072.96
0354.85	001500	-0281.89	-0292.69	072.96
0354.52	001530	-0281.57	-0292.37	072.96
0354.23	001290	-0281.27	-0292.07	072.96
0353.93	001400	-0280.98	-0291.78	072.96
0353.65	001475	-0280.69	-0291.49	072.96
0353.33	001400	-0280.38	-0291.18	072.96
0353.01	001315	-0280.05	-0290.85	072.96
0352.68	001475	-0279.73	-0290.53	072.96
0352.36	001660	-0279.40	-0290.20	072.96
0352.04	001445	-0279.09	-0289.89	072.96
0351.73	001390	-0278.78	-0289.58	072.96
0351.40	001450	-0278.44	-0289.24	072.96
0351.05	001380	-0278.10	-0288.90	072.96
0350.73	001455	-0277.77	-0288.57	072.96
0350.41	001305	-0277.46	-0288.26	072.96
0350.11	001340	-0277.16	-0287.96	072.96
0349.82	001355	-0276.86	-0287.66	072.96
0349.53	001385	-0276.58	-0287.38	072.96
0349.23	001365	-0276.27	-0287.07	072.96
0348.91	001415	-0275.95	-0286.75	072.96
0348.58	001505	-0275.63	-0286.43	072.96
0348.26	001495	-0275.30	-0286.10	072.96
0347.93	001400	-0274.97	-0285.77	072.96
0347.56	001420	-0274.60	-0285.40	072.96
0347.20	001445	-0274.24	-0285.04	072.96
0346.86	001525	-0273.90	-0284.70	072.96
0346.55	001415	-0273.60	-0284.40	072.96
0346.27	001405	-0273.31	-0284.11	072.96
0345.98	001235	-0273.03	-0283.83	072.96
0345.67	001410	-0272.71	-0283.51	072.96
0345.32	001415	-0272.37	-0283.17	072.96
0344.99	001390	-0272.03	-0282.83	072.96
0344.66	001445	-0271.70	-0282.50	072.96
0344.35	001415	-0271.39	-0282.19	072.96
0344.04	001515	-0271.09	-0281.89	072.96
0343.71	001505	-0270.75	-0281.55	072.96
0343.36	001465	-0270.40	-0281.20	072.96
0343.02	001440	-0270.07	-0280.87	072.96
0342.71	001515	-0269.75	-0280.55	072.96
0342.40	001280	-0269.44	-0280.24	072.96
0342.10	001445	-0269.15	-0279.95	072.96
0341.80	001335	-0268.85	-0279.65	072.96
0341.49	001425	-0268.54	-0279.34	072.96
0341.17	001400	-0268.22	-0279.02	072.96
0340.86	001515	-0267.90	-0278.70	072.96
0340.53	001380	-0267.58	-0278.38	072.96
0340.22	001345	-0267.26	-0278.06	072.96
0339.88	001380	-0266.92	-0277.72	072.96
0339.51	001455	-0266.55	-0277.35	072.96
0339.16	001445	-0266.20	-0277.00	072.96
0338.84	001430	-0265.88	-0276.68	072.96
0338.54	001585	-0265.59	-0276.39	072.96
0338.25	001360	-0265.30	-0276.10	072.96
0337.96	001355	-0265.00	-0275.80	072.96
0337.64	001490	-0264.68	-0275.48	072.96
0337.30	001435	-0264.35	-0275.15	072.96
0336.97	001500	-0264.02	-0274.82	072.96
0336.66	001460	-0263.70	-0274.50	072.96
0336.34	001525	-0263.39	-0274.19	072.96
0336.03	001435	-0263.08	-0273.88	072.96
0335.70	001515	-0262.74	-0273.54	072.96
0335.36	001435	-0262.40	-0273.20	072.96
0335.04	001415	-0262.09	-0272.89	072.96
0334.73	001640	-0261.77	-0272.57	072.96
0334.42	001425	-0261.46	-0272.26	072.96
0334.12	001405	-0261.17	-0271.97	072.96
0333.83	001360	-0260.87	-0271.67	072.96
0333.52	001560	-0260.57	-0271.37	072.96
0333.21	001400	-0260.25	-0271.05	072.96
0332.88	001335	-0259.92	-0270.72	072.96
0332.56	001250	-0259.60	-0270.40	072.96
0332.23	001420	-0259.27	-0270.07	072.96
0331.87	001380	-0258.91	-0269.71	072.96
0331.50	001470	-0258.55	-0269.35	072.96
0331.18	001320	-0258.22	-0269.02	072.96
0330.88	001365	-0257.92	-0268.72	072.96
0330.59	001455	-0257.63	-0268.43	072.96
0330.29	001335	-0257.33	-0268.13	072.96
0329.97	001355	-0257.02	-0267.82	072.96
0329.64	001440	-0256.68	-0267.48	072.96
0329.31	001385	-0256.35	-0267.15	072.96
0328.98	001390	-0256.03	-0266.83	072.96
0328.67	001445	-0255.71	-0266.51	072.96
0328.36	001320	-0255.41	-0266.21	072.96
0328.03	001485	-0255.08	-0265.88	072.96
0327.69	001450	-0254.73	-0265.53	072.96
0327.35	001360	-0254.40	-0265.20	072.96
0327.04	001425	-0254.08	-0264.88	072.96
0326.73	001415	-0253.78	-0264.58	072.96
0326.44	001415	-0253.48	-0264.28	072.96
0326.14	001455	-0253.19	-0263.99	072.96
0325.84	001245	-0252.88	-0263.68	072.96
0325.51	001420	-0252.56	-0263.36	072.96
0325.19	001520	-0252.24	-0263.04	072.96
0324.87	001430	-0251.91	-0262.71	072.96
0324.55	001535	-0251.60	-0262.40	072.96
0324.21	001380	-0251.25	-0262.05	072.96
0323.83	001440	-0250.88	-0261.68	072.96
0323.49	001250	-0250.53	-0261.33	072.96
0323.18	001250	-0250.23	-0261.03	072.96
0322.89	001010	-0249.93	-0260.73	072.96
0322.60	000790	-0249.64	-0260.44	072.96
0322.30	000755	-0249.35	-0260.15	072.96
0321.99	000470	-0249.03	-0259.83	072.96
0321.65	000425	-0248.70	-0259.50	072.96
0321.32	000315	-0248.37	-0259.17	072.96
0321.00	000235	-0248.05	-0258.85	072.96
0320.69	000170	-0247.74	-0258.54	072.96
0320.39	000115	-0247.43	-0258.23	072.96
0320.06	000060	-0247.10	-0257.90	072.96
0319.73	000055	-0246.77	-0257.57	072.96
0319.40	000025	-0246.45	-0257.25	072.96
0319.09	000020	-0246.13	-0256.93	072.96
0318.79	000010	-0245.83	-0256.63	072.96
0318.51	000000	-0245.56	-0256.36	072.96
0318.24	000000	-0245.28	-0256.08	072.96
0317.94	000000	-0244.98	-0255.78	072.96
0317.62	000000	-0244.66	-0255.46	072.96
0317.28	000000	-0244.33	-0255.13	072.96

#S C A N  C A N C E L L E D
